trials_2.thisRepN,trials_2.thisTrialN,trials_2.thisN,trials_2.thisIndex,trials.thisRepN,trials.thisTrialN,trials.thisN,trials.thisIndex,text.started,text.stopped,polygon.started,polygon.stopped,image_2.started,image_2.stopped,text_5.started,text_5.stopped,text_6.started,text_6.stopped,text_4.started,text_4.stopped,stim_interval,correct_resp,image.started,image.stopped,key_resp.keys,key_resp.rt,key_resp.started,key_resp.stopped,text_2.started,text_2.stopped,vivid_report,key_resp_2.rt,key_resp_2.started,key_resp_2.stopped,text_7.started,text_7.stopped,text_3.started,text_3.stopped,participant,session,date,expName,psychopyVersion,frameRate,
0,0,0,0,,,,,7.4324735419941135,None,42.6908190830145,None,41.723191750003025,None,43.69097045797389,None,,,,,,,,,,,,,,,,,,,,,,,c,001,2022_Jun_06_1754,test_exp,2021.2.3,59.710850202761435,
0,0,0,0,,,,,,,,,,,,,45.79026233300101,None,,,,,,,,,,,,,,,,,,,,,c,001,2022_Jun_06_1754,test_exp,2021.2.3,59.710850202761435,
1,0,1,0,,,,,,,50.824291124998126,None,49.82377874996746,None,51.82404433301417,None,,,,,,,,,,,,,,,,,,,,,,,c,001,2022_Jun_06_1754,test_exp,2021.2.3,59.710850202761435,
1,0,1,0,,,,,,,,,,,,,53.2749981249799,None,,,,,,,,,,,,,,,,,,,,,c,001,2022_Jun_06_1754,test_exp,2021.2.3,59.710850202761435,
2,0,2,0,,,,,,,57.29086029197788,None,56.290747291990556,None,58.291175916965585,None,,,,,,,,,,,,,,,,,,,,,,,c,001,2022_Jun_06_1754,test_exp,2021.2.3,59.710850202761435,
2,0,2,0,,,,,,,,,,,,,59.94120787497377,None,,,,,,,,,,,,,,,,,,,,,c,001,2022_Jun_06_1754,test_exp,2021.2.3,59.710850202761435,
,,,,0,0,0,0,7.4324735419941135,,73.24210845801281,None,,,,,,,61.974550375016406,None,0.47500000000000003,1,72.76118375000078,None,1,2.689609290973749,74.24188879196299,None,74.24188879196299,None,,,,,,,,,c,001,2022_Jun_06_1754,test_exp,2021.2.3,59.710850202761435,
,,,,0,0,0,0,,,,,,,,,,,,,,,,,,,,,,,1,1.195068373985123,76.95781070797238,None,76.95781070797238,None,,,c,001,2022_Jun_06_1754,test_exp,2021.2.3,59.710850202761435,
,,,,1,0,1,0,7.4324735419941135,,79.50857241696212,None,,,,,,,,,0.32500000000000007,2,79.17476029199315,None,2,0.6653791660210118,80.5082345000119,None,80.5082345000119,None,,,,,,,,,c,001,2022_Jun_06_1754,test_exp,2021.2.3,59.710850202761435,
,,,,1,0,1,0,,,,,,,,,,,,,,,,,,,,,,,2,0.6836467499961145,81.19184487499297,None,81.19184487499297,None,,,c,001,2022_Jun_06_1754,test_exp,2021.2.3,59.710850202761435,
,,,,2,0,2,0,7.4324735419941135,,83.30939287500223,None,,,,,,,,,0.4,1,82.90886537497863,None,2,0.8622487910324708,84.30943933298113,None,84.30943933298113,None,,,,,,,,,c,001,2022_Jun_06_1754,test_exp,2021.2.3,59.710850202761435,
,,,,2,0,2,0,,,,,,,,,,,,,,,,,,,,,,,2,2.1067683330038562,85.19189791701501,None,85.19189791701501,None,,,c,001,2022_Jun_06_1754,test_exp,2021.2.3,59.710850202761435,
,,,,3,0,3,0,7.4324735419941135,,88.75887116696686,None,,,,,,,,,0.42500000000000004,1,88.34082662500441,None,1,0.7864011249621399,89.75917995796772,None,89.75917995796772,None,,,,,,,,,c,001,2022_Jun_06_1754,test_exp,2021.2.3,59.710850202761435,
,,,,3,0,3,0,,,,,,,,,,,,,,,,,,,,,,,2,1.8325743330060504,90.57500895799603,None,90.57500895799603,None,,,c,001,2022_Jun_06_1754,test_exp,2021.2.3,59.710850202761435,
,,,,4,0,4,0,7.4324735419941135,,93.57582512497902,None,,,,,,,,,0.15,2,93.42564287496498,None,1,2.6924976659938693,94.57547254196834,None,94.57547254196834,None,,,,,,,,,c,001,2022_Jun_06_1754,test_exp,2021.2.3,59.710850202761435,
,,,,4,0,4,0,,,,,,,,,,,,,,,,,,,,,,,2,3.139609165955335,97.29206558299484,None,97.29206558299484,None,,,c,001,2022_Jun_06_1754,test_exp,2021.2.3,59.710850202761435,
,,,,5,0,5,0,7.4324735419941135,,101.74297220801236,None,,,,,,,,,0.275,1,101.47427345800679,None,1,1.2862768329796381,102.74253975000465,None,102.74253975000465,None,,,,,,,,,c,001,2022_Jun_06_1754,test_exp,2021.2.3,59.710850202761435,
,,,,5,0,5,0,,,,,,,,,,,,,,,,,,,,,,,1,0.6940081670181826,104.05886787496274,None,104.05886787496274,None,,,c,001,2022_Jun_06_1754,test_exp,2021.2.3,59.710850202761435,
,,,,6,0,6,0,7.4324735419941135,,106.05950429197401,None,,,,,,,,,0.275,2,105.77754808298778,None,2,2.214992333028931,107.0590706669609,None,107.0590706669609,None,,,,,,,,,c,001,2022_Jun_06_1754,test_exp,2021.2.3,59.710850202761435,
,,,,6,0,6,0,,,,,,,,,,,,,,,,,,,,,,,2,0.5267994989990257,109.29252675001044,None,109.29252675001044,None,,,c,001,2022_Jun_06_1754,test_exp,2021.2.3,59.710850202761435,
,,,,7,0,7,0,7.4324735419941135,,110.89259445801144,None,,,,,,,,,0.05,1,110.84229237498948,None,1,4.182020083011594,111.89252158300951,None,111.89252158300951,None,,,,,,,,,c,001,2022_Jun_06_1754,test_exp,2021.2.3,59.710850202761435,
,,,,7,0,7,0,,,,,,,,,,,,,,,,,,,,,,,1,0.12373925000429153,116.09283829201013,None,116.09283829201013,None,,,c,001,2022_Jun_06_1754,test_exp,2021.2.3,59.710850202761435,
,,,,8,0,8,0,7.4324735419941135,,117.3259534999961,None,,,,,,,,,0.07500000000000001,2,117.24300604197197,None,2,3.857467041001655,118.32608333299868,None,118.32608333299868,None,,,,,,,,,c,001,2022_Jun_06_1754,test_exp,2021.2.3,59.710850202761435,
,,,,8,0,8,0,,,,,,,,,,,,,,,,,,,,,,,3,0.06406220805365592,122.20950629201252,None,122.20950629201252,None,,,c,001,2022_Jun_06_1754,test_exp,2021.2.3,59.710850202761435,
,,,,9,0,9,0,7.4324735419941135,,123.47695587499766,None,,,,,,,,,0.17500000000000002,2,123.29269420797937,None,1,4.51214666699525,124.47694766701898,None,124.47694766701898,None,,,,,,,,,c,001,2022_Jun_06_1754,test_exp,2021.2.3,59.710850202761435,
,,,,9,0,9,0,,,,,,,,,,,,,,,,,,,,,,,2,0.9772867080173455,129.0099499169737,None,129.0099499169737,None,,,c,001,2022_Jun_06_1754,test_exp,2021.2.3,59.710850202761435,
,,,,10,0,10,0,7.4324735419941135,,131.04298237501644,None,,,,,,,,,0.025,1,131.00986495800316,None,1,2.154544332996011,132.0436362500186,None,132.0436362500186,None,,,,,,,,,c,001,2022_Jun_06_1754,test_exp,2021.2.3,59.710850202761435,
,,,,10,0,10,0,,,,,,,,,,,,,,,,,,,,,,,2,0.7556436670129187,134.2262461669743,None,134.2262461669743,None,,,c,001,2022_Jun_06_1754,test_exp,2021.2.3,59.710850202761435,
,,,,11,0,11,0,7.4324735419941135,,136.36063904198818,None,,,,,,,,,0.35000000000000003,2,136.01130287500564,None,1,3.565248832979705,137.36029529199004,None,137.36029529199004,None,,,,,,,,,c,001,2022_Jun_06_1754,test_exp,2021.2.3,59.710850202761435,
,,,,11,0,11,0,,,,,,,,,,,,,,,,,,,,,,,3,1.415997292031534,140.94358179200208,None,140.94358179200208,None,,,c,001,2022_Jun_06_1754,test_exp,2021.2.3,59.710850202761435,
,,,,12,0,12,0,7.4324735419941135,,143.4605060419999,None,,,,,,,,,0.07500000000000001,1,143.37735404196428,None,1,1.1145935829845257,144.46100145799574,None,144.46100145799574,None,,,,,,,,,c,001,2022_Jun_06_1754,test_exp,2021.2.3,59.710850202761435,
,,,,12,0,12,0,,,,,,,,,,,,,,,,,,,,,,,2,1.1000680000288412,145.59354208299192,None,145.59354208299192,None,,,c,001,2022_Jun_06_1754,test_exp,2021.2.3,59.710850202761435,
,,,,13,0,13,0,7.4324735419941135,,148.16059316700557,None,,,,,,,,,0.45000000000000007,2,147.71093499998096,None,2,0.906082957983017,149.160468416987,None,149.160468416987,None,,,,,,,,,c,001,2022_Jun_06_1754,test_exp,2021.2.3,59.710850202761435,
,,,,13,0,13,0,,,,,,,,,,,,,,,,,,,,,,,2,0.9143154579796828,150.09341487498023,None,150.09341487498023,None,,,c,001,2022_Jun_06_1754,test_exp,2021.2.3,59.710850202761435,
,,,,14,0,14,0,7.4324735419941135,,152.11046441696817,None,,,,,,,,,0.07500000000000001,2,152.0273556250031,None,1,0.8953822490293533,153.1106018749997,None,153.1106018749997,None,,,,,,,,,c,001,2022_Jun_06_1754,test_exp,2021.2.3,59.710850202761435,
,,,,14,0,14,0,,,,,,,,,,,,,,,,,,,,,,,2,2.926314625015948,154.02759312500712,None,154.02759312500712,None,,,c,001,2022_Jun_06_1754,test_exp,2021.2.3,59.710850202761435,
,,,,15,0,15,0,7.4324735419941135,,158.41105449997121,None,,,,,,,,,0.42500000000000004,2,157.97814904199913,None,1,1.3538362499675713,159.41079870797694,None,159.41079870797694,None,,,,,,,,,c,001,2022_Jun_06_1754,test_exp,2021.2.3,59.710850202761435,
,,,,15,0,15,0,,,,,,,,,,,,,,,,,,,,,,,2,0.6014571240521036,160.79420025000582,None,160.79420025000582,None,,,c,001,2022_Jun_06_1754,test_exp,2021.2.3,59.710850202761435,
,,,,16,0,16,0,7.4324735419941135,,162.46139487496112,None,,,,,,,,,0.025,1,162.4273989169742,None,2,1.1341504579759203,163.46152241696836,None,163.46152241696836,None,,,,,,,,,c,001,2022_Jun_06_1754,test_exp,2021.2.3,59.710850202761435,
,,,,16,0,16,0,,,,,,,,,,,,,,,,,,,,,,,2,0.16422612400492653,164.62757404200966,None,164.62757404200966,None,,,c,001,2022_Jun_06_1754,test_exp,2021.2.3,59.710850202761435,
,,,,17,0,17,0,7.4324735419941135,,165.8612582499627,None,,,,,,,,,0.05,2,165.8115302079823,None,1,0.6641452490002848,166.86172350001289,None,166.86172350001289,None,,,,,,,,,c,001,2022_Jun_06_1754,test_exp,2021.2.3,59.710850202761435,
,,,,17,0,17,0,,,,,,,,,,,,,,,,,,,,,,,2,0.3752261250047013,167.54476525000064,None,167.54476525000064,None,,,c,001,2022_Jun_06_1754,test_exp,2021.2.3,59.710850202761435,
,,,,18,0,18,0,7.4324735419941135,,169.14489779196447,None,,,,,,,,,0.2,2,168.94482004200108,None,2,2.9478238740121014,170.1451898330124,None,170.1451898330124,None,,,,,,,,,c,001,2022_Jun_06_1754,test_exp,2021.2.3,59.710850202761435,
,,,,18,0,18,0,,,,,,,,,,,,,,,,,,,,,,,3,0.3939193330006674,173.11141308298102,None,173.11141308298102,None,,,c,001,2022_Jun_06_1754,test_exp,2021.2.3,59.710850202761435,
,,,,19,0,19,0,7.4324735419941135,,174.5781767499866,None,,,,,,,,,0.05,2,174.52850999997463,None,2,1.3169107499998063,175.57808887498686,None,175.57808887498686,None,,,,,,,,,c,001,2022_Jun_06_1754,test_exp,2021.2.3,59.710850202761435,
,,,,19,0,19,0,,,,,,,,,,,,,,,,,,,,,,,4,0.19057633297052234,176.9114372920012,None,176.9114372920012,None,,,c,001,2022_Jun_06_1754,test_exp,2021.2.3,59.710850202761435,
,,,,20,0,20,0,7.4324735419941135,,178.22861200000625,None,,,,,,,,,0.1,2,178.12806195800658,None,1,0.5613614989561029,179.22809008299373,None,179.22809008299373,None,,,,,,,,,c,001,2022_Jun_06_1754,test_exp,2021.2.3,59.710850202761435,
,,,,20,0,20,0,,,,,,,,,,,,,,,,,,,,,,,3,0.6126844990067184,179.81155958300224,None,179.81155958300224,None,,,c,001,2022_Jun_06_1754,test_exp,2021.2.3,59.710850202761435,
,,,,21,0,21,0,7.4324735419941135,,181.69600579200778,None,,,,,,,,,0.25,2,181.44569999998203,None,2,1.5262387919938192,182.69522808300098,None,182.69522808300098,None,,,,,,,,,c,001,2022_Jun_06_1754,test_exp,2021.2.3,59.710850202761435,
,,,,21,0,21,0,,,,,,,,,,,,,,,,,,,,,,,2,0.5614236250403337,184.24491733300965,None,184.24491733300965,None,,,c,001,2022_Jun_06_1754,test_exp,2021.2.3,59.710850202761435,
,,,,22,0,22,0,7.4324735419941135,,186.07878183299908,None,,,,,,,,,0.25,2,185.82852491701487,None,2,4.22020533302566,187.07813512498979,None,187.07813512498979,None,,,,,,,,,c,001,2022_Jun_06_1754,test_exp,2021.2.3,59.710850202761435,
,,,,22,0,22,0,,,,,,,,,,,,,,,,,,,,,,,2,1.0099466239917092,191.32857812498696,None,191.32857812498696,None,,,c,001,2022_Jun_06_1754,test_exp,2021.2.3,59.710850202761435,
,,,,23,0,23,0,7.4324735419941135,,193.51302345801378,None,,,,,,,,,0.15,1,193.36219170800177,None,1,1.4003012910252437,194.5119755420019,None,194.5119755420019,None,,,,,,,,,c,001,2022_Jun_06_1754,test_exp,2021.2.3,59.710850202761435,
,,,,23,0,23,0,,,,,,,,,,,,,,,,,,,,,,,3,0.7476191250025295,195.92884045798564,None,195.92884045798564,None,,,c,001,2022_Jun_06_1754,test_exp,2021.2.3,59.710850202761435,
,,,,24,0,24,0,7.4324735419941135,,197.8790184999816,None,,,,,,,,,0.17500000000000002,1,197.69567804201506,None,1,0.8762137500452809,198.87855937500717,None,198.87855937500717,None,,,,,,,,,c,001,2022_Jun_06_1754,test_exp,2021.2.3,59.710850202761435,
,,,,24,0,24,0,,,,,,,,,,,,,,,,,,,,,,,3,6.230274416971952,199.7785423329915,None,199.7785423329915,None,,,c,001,2022_Jun_06_1754,test_exp,2021.2.3,59.710850202761435,
,,,,25,0,25,0,7.4324735419941135,,207.26296412496595,None,,,,,,,,,0.225,2,207.03418337501353,None,1,1.060455583035946,208.26258945796872,None,208.26258945796872,None,,,,,,,,,c,001,2022_Jun_06_1754,test_exp,2021.2.3,59.710850202761435,
,,,,25,0,25,0,,,,,,,,,,,,,,,,,,,,,,,2,1.6468820410082117,209.34596850001253,None,209.34596850001253,None,,,c,001,2022_Jun_06_1754,test_exp,2021.2.3,59.710850202761435,
,,,,26,0,26,0,7.4324735419941135,,212.09600725001656,None,,,,,,,,,0.07500000000000001,2,212.01366670796415,None,2,0.873000374995172,213.0957932919846,None,213.0957932919846,None,,,,,,,,,c,001,2022_Jun_06_1754,test_exp,2021.2.3,59.710850202761435,
,,,,26,0,26,0,,,,,,,,,,,,,,,,,,,,,,,2,3.4843522909795865,213.9955112079624,None,213.9955112079624,None,,,c,001,2022_Jun_06_1754,test_exp,2021.2.3,59.710850202761435,
,,,,27,0,27,0,7.4324735419941135,,218.8133142919978,None,,,,,,,,,0.30000000000000004,2,218.51210029196227,None,1,1.042309457960073,219.81271479197312,None,219.81271479197312,None,,,,,,,,,c,001,2022_Jun_06_1754,test_exp,2021.2.3,59.710850202761435,
,,,,27,0,27,0,,,,,,,,,,,,,,,,,,,,,,,3,0.40446683298796415,220.87958954198984,None,220.87958954198984,None,,,c,001,2022_Jun_06_1754,test_exp,2021.2.3,59.710850202761435,
,,,,28,0,28,0,7.4324735419941135,,222.46346029196866,None,,,,,,,,,0.15,2,222.3129014999722,None,2,2.5744212919962592,223.46358437498566,None,223.46358437498566,None,,,,,,,,,c,001,2022_Jun_06_1754,test_exp,2021.2.3,59.710850202761435,
,,,,28,0,28,0,,,,,,,,,,,,,,,,,,,,,,,2,1.1864867080003023,226.06339974998264,None,226.06339974998264,None,,,c,001,2022_Jun_06_1754,test_exp,2021.2.3,59.710850202761435,
,,,,29,0,29,0,7.4324735419941135,,228.71318554197205,None,,,,,,,,,0.42500000000000004,1,228.28011779196095,None,1,4.279887416050769,229.71281233301852,None,229.71281233301852,None,,,,,,,,,c,001,2022_Jun_06_1754,test_exp,2021.2.3,59.710850202761435,
,,,,29,0,29,0,,,,,,,,,,,,,,,,,,,,,,,2,1.7542450000182725,234.0134943749872,None,234.0134943749872,None,,,c,001,2022_Jun_06_1754,test_exp,2021.2.3,59.710850202761435,
,,,,30,0,30,0,7.4324735419941135,,236.93065333296545,None,,,,,,,,,0.125,2,236.7974517919938,None,1,1.3006976249744184,237.93002929200884,None,237.93002929200884,None,,,,,,,,,c,001,2022_Jun_06_1754,test_exp,2021.2.3,59.710850202761435,
,,,,30,0,30,0,,,,,,,,,,,,,,,,,,,,,,,3,0.4460912499926053,239.26287908299128,None,239.26287908299128,None,,,c,001,2022_Jun_06_1754,test_exp,2021.2.3,59.710850202761435,
,,,,31,0,31,0,7.4324735419941135,,241.06397237500641,None,,,,,,,,,0.32500000000000007,2,240.7308007919928,None,2,1.904747833032161,242.06415816699155,None,242.06415816699155,None,,,,,,,,,c,001,2022_Jun_06_1754,test_exp,2021.2.3,59.710850202761435,
,,,,31,0,31,0,,,,,,,,,,,,,,,,,,,,,,,2,8.462255082966294,243.99645425000926,None,243.99645425000926,None,,,c,001,2022_Jun_06_1754,test_exp,2021.2.3,59.710850202761435,
,,,,32,0,32,0,7.4324735419941135,,253.9638541250024,None,,,,,,,,,0.47500000000000003,2,253.48105145798763,None,1,6.757396458007861,254.96430308296112,None,254.96430308296112,None,,,,,,,,,c,001,2022_Jun_06_1754,test_exp,2021.2.3,59.710850202761435,
,,,,32,0,32,0,,,,,,,,,,,,,,,,,,,,,,,2,2.496491123980377,261.7473960829666,None,261.7473960829666,None,,,c,001,2022_Jun_06_1754,test_exp,2021.2.3,59.710850202761435,
,,,,33,0,33,0,7.4324735419941135,,265.6980233329814,None,,,,,,,,,0.42500000000000004,2,265.2643185830093,None,1,6.269064665946644,266.69828558299923,None,266.69828558299923,None,,,,,,,,,c,001,2022_Jun_06_1754,test_exp,2021.2.3,59.710850202761435,
,,,,33,0,33,0,,,,,,,,,,,,,,,,,,,,,,,2,0.7917975829914212,272.9977349169785,None,272.9977349169785,None,,,c,001,2022_Jun_06_1754,test_exp,2021.2.3,59.710850202761435,
,,,,34,0,34,0,7.4324735419941135,,275.1150892499718,None,,,,,,,,,0.30000000000000004,1,274.81507795798825,None,1,1.3950584579724818,276.11475299997255,None,276.11475299997255,None,,,,,,,,,c,001,2022_Jun_06_1754,test_exp,2021.2.3,59.710850202761435,
,,,,34,0,34,0,,,,,,,,,,,,,,,,,,,,,,,3,0.4637969989562407,277.5317233329988,None,277.5317233329988,None,,,c,001,2022_Jun_06_1754,test_exp,2021.2.3,59.710850202761435,
,,,,35,0,35,0,7.4324735419941135,,279.44830499996897,None,,,,,,,,,0.42500000000000004,1,279.0159657920012,None,2,1.8539322490105405,280.44908270798624,None,280.44908270798624,None,,,,,,,,,c,001,2022_Jun_06_1754,test_exp,2021.2.3,59.710850202761435,
,,,,35,0,35,0,,,,,,,,,,,,,,,,,,,,,,,2,1.5407004170119762,282.3309260829701,None,282.3309260829701,None,,,c,001,2022_Jun_06_1754,test_exp,2021.2.3,59.710850202761435,
,,,,36,0,36,0,7.4324735419941135,,285.28228304197546,None,,,,,,,,,0.37500000000000006,1,284.89866779197473,None,2,8.77878024999518,286.2821783749969,None,286.2821783749969,None,,,,,,,,,c,001,2022_Jun_06_1754,test_exp,2021.2.3,59.710850202761435,
,,,,36,0,36,0,,,,,,,,,,,,,,,,,,,,,,,1,2.7824937910190783,295.08247737499187,None,295.08247737499187,None,,,c,001,2022_Jun_06_1754,test_exp,2021.2.3,59.710850202761435,
,,,,37,0,37,0,7.4324735419941135,,299.3159320830018,None,,,,,,,,,0.42500000000000004,2,298.88367554196157,None,1,1.5689712919993326,300.3160357080051,None,300.3160357080051,None,,,,,,,,,c,001,2022_Jun_06_1754,test_exp,2021.2.3,59.710850202761435,
,,,,37,0,37,0,,,,,,,,,,,,,,,,,,,,,,,3,1.3030250410083681,301.9150698329904,None,301.9150698329904,None,,,c,001,2022_Jun_06_1754,test_exp,2021.2.3,59.710850202761435,
,,,,38,0,38,0,7.4324735419941135,,304.4990879999823,None,,,,,,,,,0.25,1,304.249192749965,None,2,8.616249748971313,305.4988157079788,None,305.4988157079788,None,,,,,,,,,c,001,2022_Jun_06_1754,test_exp,2021.2.3,59.710850202761435,
,,,,38,0,38,0,,,,,,,,,,,,,,,,,,,,,,,2,1.6382885000202805,314.1328277499997,None,314.1328277499997,None,,,c,001,2022_Jun_06_1754,test_exp,2021.2.3,59.710850202761435,
,,,,39,0,39,0,7.4324735419941135,,316.9501193750184,None,,,,,,,,,0.15,1,316.80026191700017,None,1,1.573750082985498,317.949417124968,None,317.949417124968,None,,,,,,,,,c,001,2022_Jun_06_1754,test_exp,2021.2.3,59.710850202761435,
,,,,39,0,39,0,,,,,,,,,,,,,,,,,,,,,,,3,2.7218477489659563,319.5493355420185,None,319.5493355420185,None,,,c,001,2022_Jun_06_1754,test_exp,2021.2.3,59.710850202761435,
,,,,40,0,40,0,7.4324735419941135,,323.6500135830138,None,,,,,,,,,0.35000000000000003,1,323.29912183299894,None,1,1.0072080829995684,324.65019554196624,None,324.65019554196624,None,,,,,,,,,c,001,2022_Jun_06_1754,test_exp,2021.2.3,59.710850202761435,
,,,,40,0,40,0,,,,,,,,,,,,,,,,,,,,,,,2,0.846134958032053,325.68324704200495,None,325.68324704200495,None,,,c,001,2022_Jun_06_1754,test_exp,2021.2.3,59.710850202761435,
,,,,41,0,41,0,7.4324735419941135,,327.73338045796845,None,,,,,,,,,0.17500000000000002,1,327.5499902499723,None,1,1.0950494999997318,328.7334786669817,None,328.7334786669817,None,,,,,,,,,c,001,2022_Jun_06_1754,test_exp,2021.2.3,59.710850202761435,
,,,,41,0,41,0,,,,,,,,,,,,,,,,,,,,,,,3,0.4119872080045752,329.8495859169634,None,329.8495859169634,None,,,c,001,2022_Jun_06_1754,test_exp,2021.2.3,59.710850202761435,
,,,,42,0,42,0,7.4324735419941135,,331.766858374991,None,,,,,,,,,0.47500000000000003,1,331.28298149997136,None,2,1.2661012079915963,332.7671147919609,None,332.7671147919609,None,,,,,,,,,c,001,2022_Jun_06_1754,test_exp,2021.2.3,59.710850202761435,
,,,,42,0,42,0,,,,,,,,,,,,,,,,,,,,,,,3,0.733621874009259,334.0497006669757,None,334.0497006669757,None,,,c,001,2022_Jun_06_1754,test_exp,2021.2.3,59.710850202761435,
,,,,43,0,43,0,7.4324735419941135,,336.15031304198783,None,,,,,,,,,0.35000000000000003,2,335.8003827079665,None,1,6.704942415992264,337.1505922920187,None,337.1505922920187,None,,,,,,,,,c,001,2022_Jun_06_1754,test_exp,2021.2.3,59.710850202761435,
,,,,43,0,43,0,,,,,,,,,,,,,,,,,,,,,,,2,0.7607410830096342,343.88313179201214,None,343.88313179201214,None,,,c,001,2022_Jun_06_1754,test_exp,2021.2.3,59.710850202761435,
,,,,44,0,44,0,7.4324735419941135,,345.7179328330094,None,,,,,,,,,0.05,1,345.667629625008,None,1,1.1420930420281366,346.7167872079881,None,346.7167872079881,None,,,,,,,,,c,001,2022_Jun_06_1754,test_exp,2021.2.3,59.710850202761435,
,,,,44,0,44,0,,,,,,,,,,,,,,,,,,,,,,,3,1.08459312497871,347.8830166250118,None,347.8830166250118,None,,,c,001,2022_Jun_06_1754,test_exp,2021.2.3,59.710850202761435,
,,,,45,0,45,0,7.4324735419941135,,350.31722525000805,None,,,,,,,,,0.32500000000000007,2,349.9846009169705,None,2,0.4924212080077268,351.31743833300425,None,351.31743833300425,None,,,,,,,,,c,001,2022_Jun_06_1754,test_exp,2021.2.3,59.710850202761435,
,,,,45,0,45,0,,,,,,,,,,,,,,,,,,,,,,,3,1.0308604160090908,351.83384691696847,None,351.83384691696847,None,,,c,001,2022_Jun_06_1754,test_exp,2021.2.3,59.710850202761435,
,,,,46,0,46,0,7.4324735419941135,,354.1180034169811,None,,,,,,,,,0.225,2,353.8842497500009,None,2,1.7776187919662334,355.1174095830065,None,355.1174095830065,None,,,,,,,,,c,001,2022_Jun_06_1754,test_exp,2021.2.3,59.710850202761435,
,,,,46,0,46,0,,,,,,,,,,,,,,,,,,,,,,,4,0.3274411669699475,356.9173694169731,None,356.9173694169731,None,,,c,001,2022_Jun_06_1754,test_exp,2021.2.3,59.710850202761435,
,,,,47,0,47,0,7.4324735419941135,,358.7174492920167,None,,,,,,,,,0.45000000000000007,1,358.26763174997177,None,1,5.174028625013307,359.71748845797265,None,359.71748845797265,None,,,,,,,,,c,001,2022_Jun_06_1754,test_exp,2021.2.3,59.710850202761435,
,,,,47,0,47,0,,,,,,,,,,,,,,,,,,,,,,,2,0.8625805409974419,364.917324708018,None,364.917324708018,None,,,c,001,2022_Jun_06_1754,test_exp,2021.2.3,59.710850202761435,
,,,,48,0,48,0,7.4324735419941135,,366.90199608297553,None,,,,,,,,,0.1,1,366.80072533298517,None,2,4.302093541016802,367.90129666699795,None,367.90129666699795,None,,,,,,,,,c,001,2022_Jun_06_1754,test_exp,2021.2.3,59.710850202761435,
,,,,48,0,48,0,,,,,,,,,,,,,,,,,,,,,,,3,0.7534428749931976,372.2340077079716,None,372.2340077079716,None,,,c,001,2022_Jun_06_1754,test_exp,2021.2.3,59.710850202761435,
,,,,49,0,49,0,7.4324735419941135,,374.5010648329626,None,,,,,,,,,0.47500000000000003,2,374.01846150000347,None,2,0.6795836240053177,375.5010570829618,None,375.5010570829618,None,,,,,,,,,c,001,2022_Jun_06_1754,test_exp,2021.2.3,59.710850202761435,
,,,,49,0,49,0,,,,,,,,,,,,,,,,,,,,,,,3,1.3378519580001011,376.2015409169835,None,376.2015409169835,None,,,c,001,2022_Jun_06_1754,test_exp,2021.2.3,59.710850202761435,
,,,,,,,,,,,,,,,,,,,,,,,,,,,,,,,,,,,,377.57058933301596,None,,,,,,,
