trials_2.thisRepN,trials_2.thisTrialN,trials_2.thisN,trials_2.thisIndex,trials.thisRepN,trials.thisTrialN,trials.thisN,trials.thisIndex,text.started,text.stopped,polygon.started,polygon.stopped,image_2.started,image_2.stopped,text_5.started,text_5.stopped,text_6.started,text_6.stopped,text_4.started,text_4.stopped,stim_interval,correct_resp,image.started,image.stopped,key_resp.keys,key_resp.rt,key_resp.started,key_resp.stopped,text_2.started,text_2.stopped,vivid_report,key_resp_2.rt,key_resp_2.started,key_resp_2.stopped,text_7.started,text_7.stopped,text_3.started,text_3.stopped,participant,session,date,expName,psychopyVersion,frameRate,
0,0,0,0,,,,,8.159392417001072,None,44.896217833971605,None,43.918053166999016,None,45.89610820898088,None,,,,,,,,,,,,,,,,,,,,,,,g,001,2022_Jun_03_1549,test_exp,2021.2.3,60.022778538400324,
0,0,0,0,,,,,,,,,,,,,48.51276433398016,None,,,,,,,,,,,,,,,,,,,,,g,001,2022_Jun_03_1549,test_exp,2021.2.3,60.022778538400324,
1,0,1,0,,,,,,,55.51342187501723,None,54.51261329196859,None,56.51338370901067,None,,,,,,,,,,,,,,,,,,,,,,,g,001,2022_Jun_03_1549,test_exp,2021.2.3,60.022778538400324,
1,0,1,0,,,,,,,,,,,,,57.61392591701588,None,,,,,,,,,,,,,,,,,,,,,g,001,2022_Jun_03_1549,test_exp,2021.2.3,60.022778538400324,
2,0,2,0,,,,,,,63.16398233396467,None,62.1633192920126,None,64.1635526670143,None,,,,,,,,,,,,,,,,,,,,,,,g,001,2022_Jun_03_1549,test_exp,2021.2.3,60.022778538400324,
2,0,2,0,,,,,,,,,,,,,64.746522041969,None,,,,,,,,,,,,,,,,,,,,,g,001,2022_Jun_03_1549,test_exp,2021.2.3,60.022778538400324,
,,,,0,0,0,0,8.159392417001072,,79.53117758396547,None,,,,,,,68.43050816701725,None,0.025,1,79.49990420899121,None,1,2.8992597910109907,80.53125058399746,None,80.53125058399746,None,,,,,,,,,g,001,2022_Jun_03_1549,test_exp,2021.2.3,60.022778538400324,
,,,,0,0,0,0,,,,,,,,,,,,,,,,,,,,,,,3,3.379478167043999,83.44734116701875,None,83.44734116701875,None,,,g,001,2022_Jun_03_1549,test_exp,2021.2.3,60.022778538400324,
,,,,1,0,1,0,8.159392417001072,,88.28111112501938,None,,,,,,,,,0.42500000000000004,2,87.8481065420201,None,1,3.0356874159770086,89.28086895897286,None,89.28086895897286,None,,,,,,,,,g,001,2022_Jun_03_1549,test_exp,2021.2.3,60.022778538400324,
,,,,1,0,1,0,,,,,,,,,,,,,,,,,,,,,,,3,1.8117601669509895,92.34719487500843,None,92.34719487500843,None,,,g,001,2022_Jun_03_1549,test_exp,2021.2.3,60.022778538400324,
,,,,2,0,2,0,8.159392417001072,,95.31451258400921,None,,,,,,,,,0.125,2,95.18214612500742,None,1,1.114609999989625,96.31507516698912,None,96.31507516698912,None,,,,,,,,,g,001,2022_Jun_03_1549,test_exp,2021.2.3,60.022778538400324,
,,,,2,0,2,0,,,,,,,,,,,,,,,,,,,,,,,3,1.2279324579867534,97.44801829196513,None,97.44801829196513,None,,,g,001,2022_Jun_03_1549,test_exp,2021.2.3,60.022778538400324,
,,,,3,0,3,0,8.159392417001072,,99.79860758397263,None,,,,,,,,,0.1,2,99.69860512501327,None,1,0.6423879989888519,100.79855108400807,None,100.79855108400807,None,,,,,,,,,g,001,2022_Jun_03_1549,test_exp,2021.2.3,60.022778538400324,
,,,,3,0,3,0,,,,,,,,,,,,,,,,,,,,,,,2,2.270955124986358,101.46472808398539,None,101.46472808398539,None,,,g,001,2022_Jun_03_1549,test_exp,2021.2.3,60.022778538400324,
,,,,4,0,4,0,8.159392417001072,,104.79917770897737,None,,,,,,,,,0.025,2,104.76467883400619,None,1,3.237857666972559,105.79825341701508,None,105.79825341701508,None,,,,,,,,,g,001,2022_Jun_03_1549,test_exp,2021.2.3,60.022778538400324,
,,,,4,0,4,0,,,,,,,,,,,,,,,,,,,,,,,1,3.7567453749943525,109.06431137496838,None,109.06431137496838,None,,,g,001,2022_Jun_03_1549,test_exp,2021.2.3,60.022778538400324,
,,,,5,0,5,0,8.159392417001072,,114.19873216701671,None,,,,,,,,,0.35000000000000003,2,113.84873550001066,None,2,1.0907696670037694,115.19829741696594,None,115.19829741696594,None,,,,,,,,,g,001,2022_Jun_03_1549,test_exp,2021.2.3,60.022778538400324,
,,,,5,0,5,0,,,,,,,,,,,,,,,,,,,,,,,2,1.2141268329578452,116.31514874997083,None,116.31514874997083,None,,,g,001,2022_Jun_03_1549,test_exp,2021.2.3,60.022778538400324,
,,,,6,0,6,0,8.159392417001072,,118.68214658397483,None,,,,,,,,,0.125,2,118.54868020897266,None,1,8.43367954104906,119.68228995898971,None,119.68228995898971,None,,,,,,,,,g,001,2022_Jun_03_1549,test_exp,2021.2.3,60.022778538400324,
,,,,6,0,6,0,,,,,,,,,,,,,,,,,,,,,,,1,1.3478940000059083,128.13218474999303,None,128.13218474999303,None,,,g,001,2022_Jun_03_1549,test_exp,2021.2.3,60.022778538400324,
,,,,7,0,7,0,8.159392417001072,,130.73310449998826,None,,,,,,,,,0.225,2,130.4994098750176,None,1,1.557291915989481,131.73297045897925,None,131.73297045897925,None,,,,,,,,,g,001,2022_Jun_03_1549,test_exp,2021.2.3,60.022778538400324,
,,,,7,0,7,0,,,,,,,,,,,,,,,,,,,,,,,3,1.0794447910157032,133.31573420896893,None,133.31573420896893,None,,,g,001,2022_Jun_03_1549,test_exp,2021.2.3,60.022778538400324,
,,,,8,0,8,0,8.159392417001072,,135.61596433399245,None,,,,,,,,,0.2,1,135.41630574996816,None,1,1.1240719999768771,136.6160542499856,None,136.6160542499856,None,,,,,,,,,g,001,2022_Jun_03_1549,test_exp,2021.2.3,60.022778538400324,
,,,,8,0,8,0,,,,,,,,,,,,,,,,,,,,,,,2,0.8834620830020867,137.7656694999896,None,137.7656694999896,None,,,g,001,2022_Jun_03_1549,test_exp,2021.2.3,60.022778538400324,
,,,,9,0,9,0,8.159392417001072,,139.71595049998723,None,,,,,,,,,0.05,2,139.66659879201325,None,1,1.1061900409986265,140.7159842500114,None,140.7159842500114,None,,,,,,,,,g,001,2022_Jun_03_1549,test_exp,2021.2.3,60.022778538400324,
,,,,9,0,9,0,,,,,,,,,,,,,,,,,,,,,,,1,3.2449931250303052,141.8493585420074,None,141.8493585420074,None,,,g,001,2022_Jun_03_1549,test_exp,2021.2.3,60.022778538400324,
,,,,10,0,10,0,8.159392417001072,,146.40022604196565,None,,,,,,,,,0.275,1,146.11667779198615,None,2,2.534655041003134,147.40042999997968,None,147.40042999997968,None,,,,,,,,,g,001,2022_Jun_03_1549,test_exp,2021.2.3,60.022778538400324,
,,,,10,0,10,0,,,,,,,,,,,,,,,,,,,,,,,2,5.697419500036631,149.96582991699688,None,149.96582991699688,None,,,g,001,2022_Jun_03_1549,test_exp,2021.2.3,60.022778538400324,
,,,,11,0,11,0,8.159392417001072,,156.71665766701335,None,,,,,,,,,0.025,2,156.68298799998593,None,1,5.303463707969058,157.71722820901778,None,157.71722820901778,None,,,,,,,,,g,001,2022_Jun_03_1549,test_exp,2021.2.3,60.022778538400324,
,,,,11,0,11,0,,,,,,,,,,,,,,,,,,,,,,,2,1.375046833010856,163.0497059589834,None,163.0497059589834,None,,,g,001,2022_Jun_03_1549,test_exp,2021.2.3,60.022778538400324,
,,,,12,0,12,0,8.159392417001072,,165.7341048750095,None,,,,,,,,,0.275,1,165.4500187090016,None,1,2.2392961240257137,166.7337950419751,None,166.7337950419751,None,,,,,,,,,g,001,2022_Jun_03_1549,test_exp,2021.2.3,60.022778538400324,
,,,,12,0,12,0,,,,,,,,,,,,,,,,,,,,,,,2,0.8456836240366101,169.0005826249835,None,169.0005826249835,None,,,g,001,2022_Jun_03_1549,test_exp,2021.2.3,60.022778538400324,
,,,,13,0,13,0,8.159392417001072,,171.15058758400846,None,,,,,,,,,0.275,1,170.8675025840057,None,2,4.02527037501568,172.15115762501955,None,172.15115762501955,None,,,,,,,,,g,001,2022_Jun_03_1549,test_exp,2021.2.3,60.022778538400324,
,,,,13,0,13,0,,,,,,,,,,,,,,,,,,,,,,,2,1.1850971670355648,176.20107858401025,None,176.20107858401025,None,,,g,001,2022_Jun_03_1549,test_exp,2021.2.3,60.022778538400324,
,,,,14,0,14,0,8.159392417001072,,178.467779708968,None,,,,,,,,,0.05,2,178.41721658397,None,2,1.3368389579700306,179.46736604196485,None,179.46736604196485,None,,,,,,,,,g,001,2022_Jun_03_1549,test_exp,2021.2.3,60.022778538400324,
,,,,14,0,14,0,,,,,,,,,,,,,,,,,,,,,,,3,3.391742957988754,180.83372008398874,None,180.83372008398874,None,,,g,001,2022_Jun_03_1549,test_exp,2021.2.3,60.022778538400324,
,,,,15,0,15,0,8.159392417001072,,185.4516937499866,None,,,,,,,,,0.2,2,185.25097283400828,None,1,1.302795291005168,186.45155624998733,None,186.45155624998733,None,,,,,,,,,g,001,2022_Jun_03_1549,test_exp,2021.2.3,60.022778538400324,
,,,,15,0,15,0,,,,,,,,,,,,,,,,,,,,,,,2,1.2113169999793172,187.78435491700657,None,187.78435491700657,None,,,g,001,2022_Jun_03_1549,test_exp,2021.2.3,60.022778538400324,
,,,,16,0,16,0,8.159392417001072,,190.20175045897486,None,,,,,,,,,0.17500000000000002,1,190.01839108398417,None,1,2.015407792001497,191.20161933399504,None,191.20161933399504,None,,,,,,,,,g,001,2022_Jun_03_1549,test_exp,2021.2.3,60.022778538400324,
,,,,16,0,16,0,,,,,,,,,,,,,,,,,,,,,,,2,1.7762541249976493,193.23498808400473,None,193.23498808400473,None,,,g,001,2022_Jun_03_1549,test_exp,2021.2.3,60.022778538400324,
,,,,17,0,17,0,8.159392417001072,,196.1354152499698,None,,,,,,,,,0.1,1,196.0350403750199,None,1,1.2456305410014465,197.13556504197186,None,197.13556504197186,None,,,,,,,,,g,001,2022_Jun_03_1549,test_exp,2021.2.3,60.022778538400324,
,,,,17,0,17,0,,,,,,,,,,,,,,,,,,,,,,,3,0.7371309989830479,198.40202629199484,None,198.40202629199484,None,,,g,001,2022_Jun_03_1549,test_exp,2021.2.3,60.022778538400324,
,,,,18,0,18,0,8.159392417001072,,200.26898420898942,None,,,,,,,,,0.1,2,200.16838191699935,None,2,1.8186927079805173,201.26835429196944,None,201.26835429196944,None,,,,,,,,,g,001,2022_Jun_03_1549,test_exp,2021.2.3,60.022778538400324,
,,,,18,0,18,0,,,,,,,,,,,,,,,,,,,,,,,3,0.9228092079865746,203.1183018750162,None,203.1183018750162,None,,,g,001,2022_Jun_03_1549,test_exp,2021.2.3,60.022778538400324,
,,,,19,0,19,0,8.159392417001072,,205.55228491697926,None,,,,,,,,,0.47500000000000003,1,205.06844908400672,None,1,0.6369030000059865,206.55238254199503,None,206.55238254199503,None,,,,,,,,,g,001,2022_Jun_03_1549,test_exp,2021.2.3,60.022778538400324,
,,,,19,0,19,0,,,,,,,,,,,,,,,,,,,,,,,4,1.7768070829915814,207.21871095901588,None,207.21871095901588,None,,,g,001,2022_Jun_03_1549,test_exp,2021.2.3,60.022778538400324,
,,,,20,0,20,0,8.159392417001072,,210.51869091700064,None,,,,,,,,,0.5,1,210.01836454198929,None,1,3.0912842500256374,211.518641749979,None,211.518641749979,None,,,,,,,,,g,001,2022_Jun_03_1549,test_exp,2021.2.3,60.022778538400324,
,,,,20,0,20,0,,,,,,,,,,,,,,,,,,,,,,,3,1.4203257079934701,214.63558537501376,None,214.63558537501376,None,,,g,001,2022_Jun_03_1549,test_exp,2021.2.3,60.022778538400324,
,,,,21,0,21,0,8.159392417001072,,217.46954695897875,None,,,,,,,,,0.37500000000000006,1,217.08548508398235,None,1,1.378865207952913,218.46935270901304,None,218.46935270901304,None,,,,,,,,,g,001,2022_Jun_03_1549,test_exp,2021.2.3,60.022778538400324,
,,,,21,0,21,0,,,,,,,,,,,,,,,,,,,,,,,3,6.676555540994741,219.86933908401988,None,219.86933908401988,None,,,g,001,2022_Jun_03_1549,test_exp,2021.2.3,60.022778538400324,
,,,,22,0,22,0,8.159392417001072,,227.7032204589923,None,,,,,,,,,0.125,1,227.56966612499673,None,1,0.8954469989985228,228.70261187496362,None,228.70261187496362,None,,,,,,,,,g,001,2022_Jun_03_1549,test_exp,2021.2.3,60.022778538400324,
,,,,22,0,22,0,,,,,,,,,,,,,,,,,,,,,,,3,1.5252905419911258,229.6198112500133,None,229.6198112500133,None,,,g,001,2022_Jun_03_1549,test_exp,2021.2.3,60.022778538400324,
,,,,23,0,23,0,8.159392417001072,,232.4201363339671,None,,,,,,,,,0.25,2,232.1698185839923,None,1,2.146446415979881,233.4203917919658,None,233.4203917919658,None,,,,,,,,,g,001,2022_Jun_03_1549,test_exp,2021.2.3,60.022778538400324,
,,,,23,0,23,0,,,,,,,,,,,,,,,,,,,,,,,3,0.5455389159615152,235.58633895899402,None,235.58633895899402,None,,,g,001,2022_Jun_03_1549,test_exp,2021.2.3,60.022778538400324,
,,,,24,0,24,0,8.159392417001072,,237.23624033399392,None,,,,,,,,,0.07500000000000001,1,237.1530141250114,None,1,1.5085269580013119,238.23655741696712,None,238.23655741696712,None,,,,,,,,,g,001,2022_Jun_03_1549,test_exp,2021.2.3,60.022778538400324,
,,,,24,0,24,0,,,,,,,,,,,,,,,,,,,,,,,3,1.0732881250442006,239.7695897090016,None,239.7695897090016,None,,,g,001,2022_Jun_03_1549,test_exp,2021.2.3,60.022778538400324,
,,,,25,0,25,0,8.159392417001072,,242.10303374996874,None,,,,,,,,,0.225,2,241.86954562499886,None,1,1.5700000829529017,243.10385316697648,None,243.10385316697648,None,,,,,,,,,g,001,2022_Jun_03_1549,test_exp,2021.2.3,60.022778538400324,
,,,,25,0,25,0,,,,,,,,,,,,,,,,,,,,,,,4,0.6993077910155989,244.70255674998043,None,244.70255674998043,None,,,g,001,2022_Jun_03_1549,test_exp,2021.2.3,60.022778538400324,
,,,,26,0,26,0,8.159392417001072,,246.87064350000583,None,,,,,,,,,0.45000000000000007,1,246.41985066700727,None,1,1.6115584580111317,247.86975000001257,None,247.86975000001257,None,,,,,,,,,g,001,2022_Jun_03_1549,test_exp,2021.2.3,60.022778538400324,
,,,,26,0,26,0,,,,,,,,,,,,,,,,,,,,,,,2,1.3968127080006525,249.5031717090169,None,249.5031717090169,None,,,g,001,2022_Jun_03_1549,test_exp,2021.2.3,60.022778538400324,
,,,,27,0,27,0,8.159392417001072,,251.95344133401522,None,,,,,,,,,0.025,2,251.92090695898514,None,1,1.7709379159496166,252.9540799590177,None,252.9540799590177,None,,,,,,,,,g,001,2022_Jun_03_1549,test_exp,2021.2.3,60.022778538400324,
,,,,27,0,27,0,,,,,,,,,,,,,,,,,,,,,,,3,0.8227001249906607,254.75331558397738,None,254.75331558397738,None,,,g,001,2022_Jun_03_1549,test_exp,2021.2.3,60.022778538400324,
,,,,28,0,28,0,8.159392417001072,,256.7047522920184,None,,,,,,,,,0.1,2,256.60406758397585,None,1,4.217750333016738,257.7200061670155,None,257.7200061670155,None,,,,,,,,,g,001,2022_Jun_03_1549,test_exp,2021.2.3,60.022778538400324,
,,,,28,0,28,0,,,,,,,,,,,,,,,,,,,,,,,3,0.8214800420100801,261.9703599169734,None,261.9703599169734,None,,,g,001,2022_Jun_03_1549,test_exp,2021.2.3,60.022778538400324,
,,,,29,0,29,0,8.159392417001072,,264.17146441701334,None,,,,,,,,,0.35000000000000003,2,263.8208239999949,None,2,2.0652476659743115,265.1706732920138,None,265.1706732920138,None,,,,,,,,,g,001,2022_Jun_03_1549,test_exp,2021.2.3,60.022778538400324,
,,,,29,0,29,0,,,,,,,,,,,,,,,,,,,,,,,3,0.8388032490038313,267.25415379198967,None,267.25415379198967,None,,,g,001,2022_Jun_03_1549,test_exp,2021.2.3,60.022778538400324,
,,,,30,0,30,0,8.159392417001072,,269.20400129200425,None,,,,,,,,,0.07500000000000001,1,269.1207875419641,None,1,6.277132874995004,270.2040369589813,None,270.2040369589813,None,,,,,,,,,g,001,2022_Jun_03_1549,test_exp,2021.2.3,60.022778538400324,
,,,,30,0,30,0,,,,,,,,,,,,,,,,,,,,,,,3,1.5815421239822172,276.50431262498023,None,276.50431262498023,None,,,g,001,2022_Jun_03_1549,test_exp,2021.2.3,60.022778538400324,
,,,,31,0,31,0,8.159392417001072,,279.38794016698375,None,,,,,,,,,0.275,1,279.1061195419752,None,2,1.2955150829511695,280.38780066696927,None,280.38780066696927,None,,,,,,,,,g,001,2022_Jun_03_1549,test_exp,2021.2.3,60.022778538400324,
,,,,31,0,31,0,,,,,,,,,,,,,,,,,,,,,,,3,2.7644057080033235,281.7046696670004,None,281.7046696670004,None,,,g,001,2022_Jun_03_1549,test_exp,2021.2.3,60.022778538400324,
,,,,32,0,32,0,8.159392417001072,,285.9883298340137,None,,,,,,,,,0.5,2,285.4880940839648,None,2,2.319297624984756,286.9887404589681,None,286.9887404589681,None,,,,,,,,,g,001,2022_Jun_03_1549,test_exp,2021.2.3,60.022778538400324,
,,,,32,0,32,0,,,,,,,,,,,,,,,,,,,,,,,3,1.2900468749576248,289.337984999991,None,289.337984999991,None,,,g,001,2022_Jun_03_1549,test_exp,2021.2.3,60.022778538400324,
,,,,33,0,33,0,8.159392417001072,,291.73904562497046,None,,,,,,,,,0.07500000000000001,2,291.65593666699715,None,2,2.2441083330195397,292.7383578749723,None,292.7383578749723,None,,,,,,,,,g,001,2022_Jun_03_1549,test_exp,2021.2.3,60.022778538400324,
,,,,33,0,33,0,,,,,,,,,,,,,,,,,,,,,,,3,1.2270419580163434,295.01107000000775,None,295.01107000000775,None,,,g,001,2022_Jun_03_1549,test_exp,2021.2.3,60.022778538400324,
,,,,34,0,34,0,8.159392417001072,,297.3392265000148,None,,,,,,,,,0.07500000000000001,2,297.25492470897734,None,1,9.218708457949106,298.3388487090124,None,298.3388487090124,None,,,,,,,,,g,001,2022_Jun_03_1549,test_exp,2021.2.3,60.022778538400324,
,,,,34,0,34,0,,,,,,,,,,,,,,,,,,,,,,,1,0.5833842909778468,307.588347708981,None,307.588347708981,None,,,g,001,2022_Jun_03_1549,test_exp,2021.2.3,60.022778538400324,
,,,,35,0,35,0,8.159392417001072,,309.23907070897985,None,,,,,,,,,0.05,1,309.18895958398934,None,1,3.0995190830435604,310.2394812499988,None,310.2394812499988,None,,,,,,,,,g,001,2022_Jun_03_1549,test_exp,2021.2.3,60.022778538400324,
,,,,35,0,35,0,,,,,,,,,,,,,,,,,,,,,,,3,0.8307203740114346,313.3559815839981,None,313.3559815839981,None,,,g,001,2022_Jun_03_1549,test_exp,2021.2.3,60.022778538400324,
,,,,36,0,36,0,8.159392417001072,,315.4563437089673,None,,,,,,,,,0.25,2,315.20534237497486,None,2,0.7838037079782225,316.45579116698354,None,316.45579116698354,None,,,,,,,,,g,001,2022_Jun_03_1549,test_exp,2021.2.3,60.022778538400324,
,,,,36,0,36,0,,,,,,,,,,,,,,,,,,,,,,,3,2.4457622910267673,317.27221629198175,None,317.27221629198175,None,,,g,001,2022_Jun_03_1549,test_exp,2021.2.3,60.022778538400324,
,,,,37,0,37,0,8.159392417001072,,321.23982241697377,None,,,,,,,,,0.5,1,320.73975537501974,None,1,2.2755047499667853,322.2397511249874,None,322.2397511249874,None,,,,,,,,,g,001,2022_Jun_03_1549,test_exp,2021.2.3,60.022778538400324,
,,,,37,0,37,0,,,,,,,,,,,,,,,,,,,,,,,4,1.076319166983012,324.5391258749878,None,324.5391258749878,None,,,g,001,2022_Jun_03_1549,test_exp,2021.2.3,60.022778538400324,
,,,,38,0,38,0,8.159392417001072,,326.73976020899136,None,,,,,,,,,0.1,2,326.63939945900347,None,2,1.428168457990978,327.7394592500059,None,327.7394592500059,None,,,,,,,,,g,001,2022_Jun_03_1549,test_exp,2021.2.3,60.022778538400324,
,,,,38,0,38,0,,,,,,,,,,,,,,,,,,,,,,,3,0.761150416044984,329.1894917089958,None,329.1894917089958,None,,,g,001,2022_Jun_03_1549,test_exp,2021.2.3,60.022778538400324,
,,,,39,0,39,0,8.159392417001072,,331.17359316698276,None,,,,,,,,,0.2,2,330.97259345900966,None,1,1.320346749969758,332.1730045839795,None,332.1730045839795,None,,,,,,,,,g,001,2022_Jun_03_1549,test_exp,2021.2.3,60.022778538400324,
,,,,39,0,39,0,,,,,,,,,,,,,,,,,,,,,,,3,0.6298549579805695,333.52260999998543,None,333.52260999998543,None,,,g,001,2022_Jun_03_1549,test_exp,2021.2.3,60.022778538400324,
,,,,40,0,40,0,8.159392417001072,,335.4232851669658,None,,,,,,,,,0.25,2,335.1732251669746,None,2,0.6389094169717282,336.42346012499183,None,336.42346012499183,None,,,,,,,,,g,001,2022_Jun_03_1549,test_exp,2021.2.3,60.022778538400324,
,,,,40,0,40,0,,,,,,,,,,,,,,,,,,,,,,,3,1.328061624953989,337.08968204201665,None,337.08968204201665,None,,,g,001,2022_Jun_03_1549,test_exp,2021.2.3,60.022778538400324,
,,,,41,0,41,0,8.159392417001072,,339.68996570899617,None,,,,,,,,,0.25,2,339.4395106249722,None,2,2.2031375829828903,340.69056154199643,None,340.69056154199643,None,,,,,,,,,g,001,2022_Jun_03_1549,test_exp,2021.2.3,60.022778538400324,
,,,,41,0,41,0,,,,,,,,,,,,,,,,,,,,,,,3,1.1473797499784268,342.92342533398187,None,342.92342533398187,None,,,g,001,2022_Jun_03_1549,test_exp,2021.2.3,60.022778538400324,
,,,,42,0,42,0,8.159392417001072,,345.5237117499928,None,,,,,,,,,0.42500000000000004,1,345.0909803339746,None,2,4.449306166963652,346.52425333397696,None,346.52425333397696,None,,,,,,,,,g,001,2022_Jun_03_1549,test_exp,2021.2.3,60.022778538400324,
,,,,42,0,42,0,,,,,,,,,,,,,,,,,,,,,,,4,1.141454083030112,350.9903913339949,None,350.9903913339949,None,,,g,001,2022_Jun_03_1549,test_exp,2021.2.3,60.022778538400324,
,,,,43,0,43,0,8.159392417001072,,353.60712887498084,None,,,,,,,,,0.45000000000000007,2,353.1568613339914,None,1,1.527623166970443,354.6072929999791,None,354.6072929999791,None,,,,,,,,,g,001,2022_Jun_03_1549,test_exp,2021.2.3,60.022778538400324,
,,,,43,0,43,0,,,,,,,,,,,,,,,,,,,,,,,2,5.831473290978465,356.15708691696636,None,356.15708691696636,None,,,g,001,2022_Jun_03_1549,test_exp,2021.2.3,60.022778538400324,
,,,,44,0,44,0,8.159392417001072,,363.3578742920072,None,,,,,,,,,0.35000000000000003,2,363.0072293750127,None,2,0.7462519989931025,364.35747733397875,None,364.35747733397875,None,,,,,,,,,g,001,2022_Jun_03_1549,test_exp,2021.2.3,60.022778538400324,
,,,,44,0,44,0,,,,,,,,,,,,,,,,,,,,,,,2,1.5064947080099955,365.12411516701104,None,365.12411516701104,None,,,g,001,2022_Jun_03_1549,test_exp,2021.2.3,60.022778538400324,
,,,,45,0,45,0,8.159392417001072,,367.9409295839723,None,,,,,,,,,0.275,2,367.65748787496705,None,1,3.0431097500259057,368.9406744170119,None,368.9406744170119,None,,,,,,,,,g,001,2022_Jun_03_1549,test_exp,2021.2.3,60.022778538400324,
,,,,45,0,45,0,,,,,,,,,,,,,,,,,,,,,,,2,0.9830150000052527,372.00753712496953,None,372.00753712496953,None,,,g,001,2022_Jun_03_1549,test_exp,2021.2.3,60.022778538400324,
,,,,46,0,46,0,8.159392417001072,,374.10843745898455,None,,,,,,,,,0.1,2,374.00819004199,None,1,0.935800792009104,375.10779441701015,None,375.10779441701015,None,,,,,,,,,g,001,2022_Jun_03_1549,test_exp,2021.2.3,60.022778538400324,
,,,,46,0,46,0,,,,,,,,,,,,,,,,,,,,,,,3,0.6636623329832219,376.0740539589897,None,376.0740539589897,None,,,g,001,2022_Jun_03_1549,test_exp,2021.2.3,60.022778538400324,
,,,,47,0,47,0,8.159392417001072,,378.241690209019,None,,,,,,,,,0.47500000000000003,2,377.7576253339648,None,2,0.6477535410085693,379.2419227499631,None,379.2419227499631,None,,,,,,,,,g,001,2022_Jun_03_1549,test_exp,2021.2.3,60.022778538400324,
,,,,47,0,47,0,,,,,,,,,,,,,,,,,,,,,,,4,0.3877140000113286,379.9080176670104,None,379.9080176670104,None,,,g,001,2022_Jun_03_1549,test_exp,2021.2.3,60.022778538400324,
,,,,48,0,48,0,8.159392417001072,,381.3757096250192,None,,,,,,,,,0.05,1,381.3248313340009,None,2,0.9668145829928108,382.3749016249785,None,382.3749016249785,None,,,,,,,,,g,001,2022_Jun_03_1549,test_exp,2021.2.3,60.022778538400324,
,,,,48,0,48,0,,,,,,,,,,,,,,,,,,,,,,,3,1.632689082995057,383.35799845901784,None,383.35799845901784,None,,,g,001,2022_Jun_03_1549,test_exp,2021.2.3,60.022778538400324,
,,,,49,0,49,0,8.159392417001072,,386.07573375001084,None,,,,,,,,,0.05,1,386.0237507499987,None,1,8.443291124945972,387.07538529200247,None,387.07538529200247,None,,,,,,,,,g,001,2022_Jun_03_1549,test_exp,2021.2.3,60.022778538400324,
,,,,49,0,49,0,,,,,,,,,,,,,,,,,,,,,,,1,0.19095295801525936,395.5419844589778,None,395.5419844589778,None,,,g,001,2022_Jun_03_1549,test_exp,2021.2.3,60.022778538400324,
,,,,,,,,,,,,,,,,,,,,,,,,,,,,,,,,,,,,395.75840341701405,None,,,,,,,
