trials_2.thisRepN,trials_2.thisTrialN,trials_2.thisN,trials_2.thisIndex,trials.thisRepN,trials.thisTrialN,trials.thisN,trials.thisIndex,text.started,text.stopped,polygon.started,polygon.stopped,image_2.started,image_2.stopped,text_5.started,text_5.stopped,text_4.started,text_4.stopped,stim_interval,correct_resp,image.started,image.stopped,key_resp.keys,key_resp.rt,key_resp.started,key_resp.stopped,text_2.started,text_2.stopped,text_3.started,text_3.stopped,participant,session,date,expName,psychopyVersion,frameRate,
0,0,0,0,,,,,19.548006375029217,None,128.17505779099884,None,127.2086465000175,None,129.1754213750246,None,,,,,,,,,,,,,,,j,001,2022_Jun_02_1535,test_exp,2021.2.3,60.13146230093964,
1,0,1,0,,,,,,,135.9921389160445,None,134.99385029100813,None,136.9917082080501,None,,,,,,,,,,,,,,,j,001,2022_Jun_02_1535,test_exp,2021.2.3,60.13146230093964,
2,0,2,0,,,,,,,149.60878366604447,None,148.6088514160365,None,150.60945583303692,None,,,,,,,,,,,,,,,j,001,2022_Jun_02_1535,test_exp,2021.2.3,60.13146230093964,
,,,,0,0,0,0,19.548006375029217,,156.6593530829996,None,,,,,151.9091966660344,None,0.05,2,156.59435141604627,None,1,6.82153808302246,157.65905862505315,None,157.65905862505315,None,,,j,001,2022_Jun_02_1535,test_exp,2021.2.3,60.13146230093964,
,,,,1,0,1,0,19.548006375029217,,165.75951345800422,None,,,,,,,0.25,2,165.50957229104824,None,2,0.4875332490191795,166.7591651660041,None,166.7591651660041,None,,,j,001,2022_Jun_02_1535,test_exp,2021.2.3,60.13146230093964,
,,,,2,0,2,0,19.548006375029217,,168.70941137504997,None,,,,,,,0.42500000000000004,1,168.27739254100015,None,1,1.0031802079756744,169.70951266604243,None,169.70951266604243,None,,,j,001,2022_Jun_02_1535,test_exp,2021.2.3,60.13146230093964,
,,,,3,0,3,0,19.548006375029217,,171.9762500410434,None,,,,,,,0.225,1,171.7430934580043,None,1,0.6215061659459025,172.97606983303558,None,172.97606983303558,None,,,j,001,2022_Jun_02_1535,test_exp,2021.2.3,60.13146230093964,
,,,,4,0,4,0,19.548006375029217,,174.9597585410229,None,,,,,,,0.32500000000000007,1,174.62591770803556,None,1,0.32339870801661164,175.95933791605057,None,175.95933791605057,None,,,j,001,2022_Jun_02_1535,test_exp,2021.2.3,60.13146230093964,
,,,,5,0,5,0,19.548006375029217,,177.41019979101839,None,,,,,,,0.1,1,177.30954466602998,None,2,0.399504708009772,178.41012029105332,None,178.41012029105332,None,,,j,001,2022_Jun_02_1535,test_exp,2021.2.3,60.13146230093964,
,,,,6,0,6,0,19.548006375029217,,180.32692920800764,None,,,,,,,0.47500000000000003,2,179.84269350004615,None,1,0.6279634579550475,181.326198499999,None,181.326198499999,None,,,j,001,2022_Jun_02_1535,test_exp,2021.2.3,60.13146230093964,
,,,,7,0,7,0,19.548006375029217,,183.1096473330399,None,,,,,,,0.125,2,182.97653970803367,None,2,0.9157066250336356,184.11006516602356,None,184.11006516602356,None,,,j,001,2022_Jun_02_1535,test_exp,2021.2.3,60.13146230093964,
,,,,8,0,8,0,19.548006375029217,,186.49329675000627,None,,,,,,,0.45000000000000007,1,186.04356550000375,None,1,0.6257243750151247,187.49349362502107,None,187.49349362502107,None,,,j,001,2022_Jun_02_1535,test_exp,2021.2.3,60.13146230093964,
,,,,9,0,9,0,19.548006375029217,,189.42682441603392,None,,,,,,,0.275,2,189.1428598750499,None,2,0.8903631669818424,190.4265515000443,None,190.4265515000443,None,,,j,001,2022_Jun_02_1535,test_exp,2021.2.3,60.13146230093964,
,,,,10,0,10,0,19.548006375029217,,192.64371133304667,None,,,,,,,0.30000000000000004,2,192.34341716603376,None,None,,193.6435063329991,None,193.6435063329991,None,,,j,001,2022_Jun_02_1535,test_exp,2021.2.3,60.13146230093964,
,,,,11,0,11,0,19.548006375029217,,195.94393770804163,None,,,,,,,0.47500000000000003,2,195.46062000002712,None,1,2.6356607080087997,196.94390487502096,None,196.94390487502096,None,,,j,001,2022_Jun_02_1535,test_exp,2021.2.3,60.13146230093964,
,,,,12,0,12,0,19.548006375029217,,201.09393250005087,None,,,,,,,0.47500000000000003,1,200.61071254103445,None,1,2.1679805829771794,202.09355495800264,None,202.09355495800264,None,,,j,001,2022_Jun_02_1535,test_exp,2021.2.3,60.13146230093964,
,,,,13,0,13,0,19.548006375029217,,205.39430570800323,None,,,,,,,0.1,2,205.29357058304595,None,2,7.102415708010085,206.3942362080561,None,206.3942362080561,None,,,j,001,2022_Jun_02_1535,test_exp,2021.2.3,60.13146230093964,
,,,,14,0,14,0,19.548006375029217,,214.99431008304236,None,,,,,,,0.45000000000000007,1,214.54284287500195,None,2,1.2359321659896523,215.9937409160193,None,215.9937409160193,None,,,j,001,2022_Jun_02_1535,test_exp,2021.2.3,60.13146230093964,
,,,,15,0,15,0,19.548006375029217,,218.3440230000415,None,,,,,,,0.07500000000000001,1,218.26101150002796,None,1,6.356456582958344,219.34368462505518,None,219.34368462505518,None,,,j,001,2022_Jun_02_1535,test_exp,2021.2.3,60.13146230093964,
,,,,16,0,16,0,19.548006375029217,,227.16110566601856,None,,,,,,,0.42500000000000004,2,226.72788766602753,None,1,1.0023102080449462,228.16078520804876,None,228.16078520804876,None,,,j,001,2022_Jun_02_1535,test_exp,2021.2.3,60.13146230093964,
,,,,17,0,17,0,19.548006375029217,,230.42850350000663,None,,,,,,,0.225,2,230.19419937505154,None,1,2.8004370409762487,231.42782216600608,None,231.42782216600608,None,,,j,001,2022_Jun_02_1535,test_exp,2021.2.3,60.13146230093964,
,,,,18,0,18,0,19.548006375029217,,235.44527591601945,None,,,,,,,0.17500000000000002,2,235.26134287501918,None,2,1.3953192080371082,236.44517654104857,None,236.44517654104857,None,,,j,001,2022_Jun_02_1535,test_exp,2021.2.3,60.13146230093964,
,,,,19,0,19,0,19.548006375029217,,239.1949669160531,None,,,,,,,0.32500000000000007,2,238.8613327910425,None,2,4.139327623997815,240.19479562505148,None,240.19479562505148,None,,,j,001,2022_Jun_02_1535,test_exp,2021.2.3,60.13146230093964,
,,,,20,0,20,0,19.548006375029217,,245.5955114160315,None,,,,,,,0.225,1,245.36221154103987,None,1,0.5376422079862095,246.59559545799857,None,246.59559545799857,None,,,j,001,2022_Jun_02_1535,test_exp,2021.2.3,60.13146230093964,
,,,,21,0,21,0,19.548006375029217,,248.41223912499845,None,,,,,,,0.25,2,248.1618131660507,None,1,1.0064830830087885,249.41168958303751,None,249.41168958303751,None,,,j,001,2022_Jun_02_1535,test_exp,2021.2.3,60.13146230093964,
,,,,22,0,22,0,19.548006375029217,,251.52968000003602,None,,,,,,,0.07500000000000001,2,251.4452116660541,None,2,0.7647393749793991,252.52864175004652,None,252.52864175004652,None,,,j,001,2022_Jun_02_1535,test_exp,2021.2.3,60.13146230093964,
,,,,23,0,23,0,19.548006375029217,,254.56259008304914,None,,,,,,,0.25,1,254.3123038750491,None,1,0.39555983303580433,255.5619297910016,None,255.5619297910016,None,,,j,001,2022_Jun_02_1535,test_exp,2021.2.3,60.13146230093964,
,,,,24,0,24,0,19.548006375029217,,257.11291791603435,None,,,,,,,0.125,2,256.9789130410063,None,2,0.5144606250105426,258.11298395803897,None,258.11298395803897,None,,,j,001,2022_Jun_02_1535,test_exp,2021.2.3,60.13146230093964,
,,,,25,0,25,0,19.548006375029217,,259.72886695800116,None,,,,,,,0.07500000000000001,2,259.6456328330096,None,1,0.6919016659958288,260.72869158303365,None,260.72869158303365,None,,,j,001,2022_Jun_02_1535,test_exp,2021.2.3,60.13146230093964,
,,,,26,0,26,0,19.548006375029217,,262.8959663330461,None,,,,,,,0.45000000000000007,1,262.4457485000021,None,1,1.4517470420105383,263.89565154101,None,263.89565154101,None,,,j,001,2022_Jun_02_1535,test_exp,2021.2.3,60.13146230093964,
,,,,27,0,27,0,19.548006375029217,,266.46235700004036,None,,,,,,,0.07500000000000001,1,266.37903870805167,None,1,0.47887316602282226,267.4628182910383,None,267.4628182910383,None,,,j,001,2022_Jun_02_1535,test_exp,2021.2.3,60.13146230093964,
,,,,28,0,28,0,19.548006375029217,,269.16283145803027,None,,,,,,,0.2,2,268.96314175002044,None,1,0.3930317080230452,270.1627437910065,None,270.1627437910065,None,,,j,001,2022_Jun_02_1535,test_exp,2021.2.3,60.13146230093964,
,,,,29,0,29,0,19.548006375029217,,271.66246870800387,None,,,,,,,0.07500000000000001,1,271.57974495802773,None,2,0.6994387499871664,272.66306045802776,None,272.66306045802776,None,,,j,001,2022_Jun_02_1535,test_exp,2021.2.3,60.13146230093964,
,,,,30,0,30,0,19.548006375029217,,274.53004579100525,None,,,,,,,0.15,1,274.3796545830555,None,1,0.4360377079574391,275.5303580830223,None,275.5303580830223,None,,,j,001,2022_Jun_02_1535,test_exp,2021.2.3,60.13146230093964,
,,,,31,0,31,0,19.548006375029217,,277.3798988330527,None,,,,,,,0.37500000000000006,1,276.99606100004166,None,1,0.5985342080239207,278.38002179103205,None,278.38002179103205,None,,,j,001,2022_Jun_02_1535,test_exp,2021.2.3,60.13146230093964,
,,,,32,0,32,0,19.548006375029217,,280.1304560000426,None,,,,,,,0.125,1,279.9964665410225,None,1,2.911952416994609,281.12983220804017,None,281.12983220804017,None,,,j,001,2022_Jun_02_1535,test_exp,2021.2.3,60.13146230093964,
,,,,33,0,33,0,19.548006375029217,,285.24724729103036,None,,,,,,,0.17500000000000002,2,285.0632663750439,None,1,0.33131966600194573,286.24665983300656,None,286.24665983300656,None,,,j,001,2022_Jun_02_1535,test_exp,2021.2.3,60.13146230093964,
,,,,34,0,34,0,19.548006375029217,,287.6462387080537,None,,,,,,,0.05,1,287.59623020800063,None,1,1.1476308329729363,288.6463516660151,None,288.6463516660151,None,,,j,001,2022_Jun_02_1535,test_exp,2021.2.3,60.13146230093964,
,,,,35,0,35,0,19.548006375029217,,291.01401233300567,None,,,,,,,0.2,2,290.8136697910377,None,2,0.7109235000098124,292.01320241601206,None,292.01320241601206,None,,,j,001,2022_Jun_02_1535,test_exp,2021.2.3,60.13146230093964,
,,,,36,0,36,0,19.548006375029217,,294.0801552910125,None,,,,,,,0.32500000000000007,2,293.746942125028,None,1,0.7119132920051925,295.0803707910236,None,295.0803707910236,None,,,j,001,2022_Jun_02_1535,test_exp,2021.2.3,60.13146230093964,
,,,,37,0,37,0,19.548006375029217,,296.9637112080236,None,,,,,,,0.15,1,296.81340320804156,None,1,1.1703569989767857,297.9636670000036,None,297.9636670000036,None,,,j,001,2022_Jun_02_1535,test_exp,2021.2.3,60.13146230093964,
,,,,38,0,38,0,19.548006375029217,,300.2636491660378,None,,,,,,,0.1,2,300.16381158301374,None,2,0.9210417080321349,301.26406020805007,None,301.26406020805007,None,,,j,001,2022_Jun_02_1535,test_exp,2021.2.3,60.13146230093964,
,,,,39,0,39,0,19.548006375029217,,303.5473664160236,None,,,,,,,0.32500000000000007,2,303.21412000001874,None,2,0.5652927909977734,304.5478065830539,None,304.5478065830539,None,,,j,001,2022_Jun_02_1535,test_exp,2021.2.3,60.13146230093964,
,,,,40,0,40,0,19.548006375029217,,306.51392766600475,None,,,,,,,0.37500000000000006,1,306.13034541602246,None,1,1.639024791016709,307.51395983301336,None,307.51395983301336,None,,,j,001,2022_Jun_02_1535,test_exp,2021.2.3,60.13146230093964,
,,,,41,0,41,0,19.548006375029217,,310.28048904100433,None,,,,,,,0.1,2,310.1804857500247,None,2,0.3143477499834262,311.2806156660081,None,311.2806156660081,None,,,j,001,2022_Jun_02_1535,test_exp,2021.2.3,60.13146230093964,
,,,,42,0,42,0,19.548006375029217,,312.86416583304526,None,,,,,,,0.25,2,312.61456129100407,None,1,2.6720789169776253,313.863700625021,None,313.863700625021,None,,,j,001,2022_Jun_02_1535,test_exp,2021.2.3,60.13146230093964,
,,,,43,0,43,0,19.548006375029217,,317.91484712500824,None,,,,,,,0.35000000000000003,2,317.56376208300935,None,1,1.225022208003793,318.9140022500069,None,318.9140022500069,None,,,j,001,2022_Jun_02_1535,test_exp,2021.2.3,60.13146230093964,
,,,,44,0,44,0,19.548006375029217,,321.56448766600806,None,,,,,,,0.4,2,321.16410612501204,None,1,1.4163010000484064,322.56454099999974,None,322.56454099999974,None,,,j,001,2022_Jun_02_1535,test_exp,2021.2.3,60.13146230093964,
,,,,45,0,45,0,19.548006375029217,,325.34789920801995,None,,,,,,,0.35000000000000003,2,324.9981793750194,None,1,0.3451574580394663,326.34791833302006,None,326.34791833302006,None,,,j,001,2022_Jun_02_1535,test_exp,2021.2.3,60.13146230093964,
,,,,46,0,46,0,19.548006375029217,,327.9977796660387,None,,,,,,,0.275,2,327.71497208304936,None,2,0.40645908302394673,328.99839404103113,None,328.99839404103113,None,,,j,001,2022_Jun_02_1535,test_exp,2021.2.3,60.13146230093964,
,,,,47,0,47,0,19.548006375029217,,330.7312637499999,None,,,,,,,0.30000000000000004,1,330.4317155830213,None,1,0.7637036659871228,331.731307708018,None,331.731307708018,None,,,j,001,2022_Jun_02_1535,test_exp,2021.2.3,60.13146230093964,
,,,,48,0,48,0,19.548006375029217,,333.94822441600263,None,,,,,,,0.42500000000000004,2,333.51436608302174,None,1,0.36561958299716935,334.94831345800776,None,334.94831345800776,None,,,j,001,2022_Jun_02_1535,test_exp,2021.2.3,60.13146230093964,
,,,,49,0,49,0,19.548006375029217,,336.3813232080429,None,,,,,,,0.05,1,336.33126520802034,None,1,0.7704920829855837,337.3814671250293,None,337.3814671250293,None,,,j,001,2022_Jun_02_1535,test_exp,2021.2.3,60.13146230093964,
,,,,,,,,,,,,,,,,,,,,,,,,,,,,338.18123520800145,None,,,,,,,
