trials_2.thisRepN,trials_2.thisTrialN,trials_2.thisN,trials_2.thisIndex,trials.thisRepN,trials.thisTrialN,trials.thisN,trials.thisIndex,text.started,text.stopped,polygon.started,polygon.stopped,image_2.started,image_2.stopped,text_5.started,text_5.stopped,text_6.started,text_6.stopped,text_4.started,text_4.stopped,stim_interval,correct_resp,image.started,image.stopped,key_resp.keys,key_resp.rt,key_resp.started,key_resp.stopped,text_2.started,text_2.stopped,vivid_report,key_resp_2.rt,key_resp_2.started,key_resp_2.stopped,text_7.started,text_7.stopped,text_3.started,text_3.stopped,participant,session,date,expName,psychopyVersion,frameRate,
0,0,0,0,,,,,6.5241379590006545,None,9.259434875042643,None,8.27441145904595,None,10.259635291993618,None,,,,,,,,,,,,,,,,,,,,,,,s,001,2022_Jun_03_1455,test_exp,2021.2.3,60.09060159839636,
0,0,0,0,,,,,,,,,,,,,10.859216750017367,None,,,,,,,,,,,,,,,,,,,,,s,001,2022_Jun_03_1455,test_exp,2021.2.3,60.09060159839636,
1,0,1,0,,,,,,,14.292799584043678,None,13.29207129200222,None,15.292321042041294,None,,,,,,,,,,,,,,,,,,,,,,,s,001,2022_Jun_03_1455,test_exp,2021.2.3,60.09060159839636,
1,0,1,0,,,,,,,,,,,,,15.909155042027123,None,,,,,,,,,,,,,,,,,,,,,s,001,2022_Jun_03_1455,test_exp,2021.2.3,60.09060159839636,
2,0,2,0,,,,,,,18.793072000029497,None,17.792185625003185,None,19.792452042049263,None,,,,,,,,,,,,,,,,,,,,,,,s,001,2022_Jun_03_1455,test_exp,2021.2.3,60.09060159839636,
2,0,2,0,,,,,,,,,,,,,20.659241000015754,None,,,,,,,,,,,,,,,,,,,,,s,001,2022_Jun_03_1455,test_exp,2021.2.3,60.09060159839636,
,,,,0,0,0,0,6.5241379590006545,,24.226851667044684,None,,,,,,,21.714720999996644,None,0.225,1,23.99472845904529,None,1,0.4532844999921508,25.226603874994908,None,25.226603874994908,None,,,,,,,,,s,001,2022_Jun_03_1455,test_exp,2021.2.3,60.09060159839636,
,,,,0,0,0,0,,,,,,,,,,,,,,,,,,,,,,,2,2.1858507489669137,25.708993375010323,None,25.708993375010323,None,,,s,001,2022_Jun_03_1455,test_exp,2021.2.3,60.09060159839636,
,,,,1,0,1,0,6.5241379590006545,,29.32652241701726,None,,,,,,,,,0.4,1,28.926614750002045,None,2,1.6997740420047194,30.326178917021025,None,30.326178917021025,None,,,,,,,,,s,001,2022_Jun_03_1455,test_exp,2021.2.3,60.09060159839636,
,,,,1,0,1,0,,,,,,,,,,,,,,,,,,,,,,,2,1.13296287500998,32.04303062503459,None,32.04303062503459,None,,,s,001,2022_Jun_03_1455,test_exp,2021.2.3,60.09060159839636,
,,,,2,0,2,0,6.5241379590006545,,34.293641125026625,None,,,,,,,,,0.1,1,34.193526459042914,None,1,1.2240150420111604,35.29307458404219,None,35.29307458404219,None,,,,,,,,,s,001,2022_Jun_03_1455,test_exp,2021.2.3,60.09060159839636,
,,,,2,0,2,0,,,,,,,,,,,,,,,,,,,,,,,2,0.977275290992111,36.54312099999515,None,36.54312099999515,None,,,s,001,2022_Jun_03_1455,test_exp,2021.2.3,60.09060159839636,
,,,,3,0,3,0,6.5241379590006545,,38.644382625003345,None,,,,,,,,,0.1,1,38.54284433403518,None,2,0.9750789160025306,39.643147750000935,None,39.643147750000935,None,,,,,,,,,s,001,2022_Jun_03_1455,test_exp,2021.2.3,60.09060159839636,
,,,,3,0,3,0,,,,,,,,,,,,,,,,,,,,,,,2,1.141090916004032,40.64293395902496,None,40.64293395902496,None,,,s,001,2022_Jun_03_1455,test_exp,2021.2.3,60.09060159839636,
,,,,4,0,4,0,6.5241379590006545,,42.84341170900734,None,,,,,,,,,0.025,2,42.809899750049226,None,2,1.2226241659955122,43.843430917011574,None,43.843430917011574,None,,,,,,,,,s,001,2022_Jun_03_1455,test_exp,2021.2.3,60.09060159839636,
,,,,4,0,4,0,,,,,,,,,,,,,,,,,,,,,,,3,0.9577907079947181,45.093356458994094,None,45.093356458994094,None,,,s,001,2022_Jun_03_1455,test_exp,2021.2.3,60.09060159839636,
,,,,5,0,5,0,6.5241379590006545,,47.3109855420189,None,,,,,,,,,0.225,2,47.076770167041104,None,2,1.456728250021115,48.310422709037084,None,48.310422709037084,None,,,,,,,,,s,001,2022_Jun_03_1455,test_exp,2021.2.3,60.09060159839636,
,,,,5,0,5,0,,,,,,,,,,,,,,,,,,,,,,,3,1.2535260829608887,49.79364666703623,None,49.79364666703623,None,,,s,001,2022_Jun_03_1455,test_exp,2021.2.3,60.09060159839636,
,,,,6,0,6,0,6.5241379590006545,,52.526981834031176,None,,,,,,,,,0.45000000000000007,2,52.077182417036965,None,2,1.060242958017625,53.52728983404813,None,53.52728983404813,None,,,,,,,,,s,001,2022_Jun_03_1455,test_exp,2021.2.3,60.09060159839636,
,,,,6,0,6,0,,,,,,,,,,,,,,,,,,,,,,,4,0.8396580829867162,54.61054341704585,None,54.61054341704585,None,,,s,001,2022_Jun_03_1455,test_exp,2021.2.3,60.09060159839636,
,,,,7,0,7,0,6.5241379590006545,,56.67734300001757,None,,,,,,,,,0.2,1,56.47773000004236,None,2,0.9759617079980671,57.677540667005815,None,57.677540667005815,None,,,,,,,,,s,001,2022_Jun_03_1455,test_exp,2021.2.3,60.09060159839636,
,,,,7,0,7,0,,,,,,,,,,,,,,,,,,,,,,,3,1.4291351669817232,58.67732850002358,None,58.67732850002358,None,,,s,001,2022_Jun_03_1455,test_exp,2021.2.3,60.09060159839636,
,,,,8,0,8,0,6.5241379590006545,,61.16077491705073,None,,,,,,,,,0.025,1,61.12782829202479,None,1,1.7451440829900093,62.16136608400848,None,62.16136608400848,None,,,,,,,,,s,001,2022_Jun_03_1455,test_exp,2021.2.3,60.09060159839636,
,,,,8,0,8,0,,,,,,,,,,,,,,,,,,,,,,,2,1.0298486239626072,63.92759204201866,None,63.92759204201866,None,,,s,001,2022_Jun_03_1455,test_exp,2021.2.3,60.09060159839636,
,,,,9,0,9,0,6.5241379590006545,,66.32735620904714,None,,,,,,,,,0.35000000000000003,2,65.97772279201308,None,2,1.018751333002001,67.32756783399964,None,67.32756783399964,None,,,,,,,,,s,001,2022_Jun_03_1455,test_exp,2021.2.3,60.09060159839636,
,,,,9,0,9,0,,,,,,,,,,,,,,,,,,,,,,,4,1.0831869170069695,68.37710325000808,None,68.37710325000808,None,,,s,001,2022_Jun_03_1455,test_exp,2021.2.3,60.09060159839636,
,,,,10,0,10,0,6.5241379590006545,,70.67841337504797,None,,,,,,,,,0.2,1,70.47832829202525,None,1,2.5603512920206413,71.67759604204912,None,71.67759604204912,None,,,,,,,,,s,001,2022_Jun_03_1455,test_exp,2021.2.3,60.09060159839636,
,,,,10,0,10,0,,,,,,,,,,,,,,,,,,,,,,,2,1.199357333010994,74.26141404203372,None,74.26141404203372,None,,,s,001,2022_Jun_03_1455,test_exp,2021.2.3,60.09060159839636,
,,,,11,0,11,0,6.5241379590006545,,76.52788462501485,None,,,,,,,,,0.05,1,76.47770666703582,None,1,0.7754428330226801,77.52861925004981,None,77.52861925004981,None,,,,,,,,,s,001,2022_Jun_03_1455,test_exp,2021.2.3,60.09060159839636,
,,,,11,0,11,0,,,,,,,,,,,,,,,,,,,,,,,2,0.8555558329680935,78.32815983402543,None,78.32815983402543,None,,,s,001,2022_Jun_03_1455,test_exp,2021.2.3,60.09060159839636,
,,,,12,0,12,0,6.5241379590006545,,80.36205012502614,None,,,,,,,,,0.15,1,80.21106379199773,None,1,2.561714290990494,81.3619285839959,None,81.3619285839959,None,,,,,,,,,s,001,2022_Jun_03_1455,test_exp,2021.2.3,60.09060159839636,
,,,,12,0,12,0,,,,,,,,,,,,,,,,,,,,,,,3,0.9544880829635076,83.94502112502232,None,83.94502112502232,None,,,s,001,2022_Jun_03_1455,test_exp,2021.2.3,60.09060159839636,
,,,,13,0,13,0,6.5241379590006545,,86.06202929205028,None,,,,,,,,,0.125,2,85.9288472920307,None,2,1.241942749998998,87.06174445903162,None,87.06174445903162,None,,,,,,,,,s,001,2022_Jun_03_1455,test_exp,2021.2.3,60.09060159839636,
,,,,13,0,13,0,,,,,,,,,,,,,,,,,,,,,,,3,1.0897709999699146,88.32868329202756,None,88.32868329202756,None,,,s,001,2022_Jun_03_1455,test_exp,2021.2.3,60.09060159839636,
,,,,14,0,14,0,6.5241379590006545,,90.77865662501426,None,,,,,,,,,0.32500000000000007,2,90.4452844170155,None,1,2.5017925419961102,91.77936233399669,None,91.77936233399669,None,,,,,,,,,s,001,2022_Jun_03_1455,test_exp,2021.2.3,60.09060159839636,
,,,,14,0,14,0,,,,,,,,,,,,,,,,,,,,,,,3,1.0576376249664463,94.31156995904166,None,94.31156995904166,None,,,s,001,2022_Jun_03_1455,test_exp,2021.2.3,60.09060159839636,
,,,,15,0,15,0,6.5241379590006545,,96.62912516703364,None,,,,,,,,,0.225,2,96.39498187502613,None,1,2.0043107079691254,97.62902670900803,None,97.62902670900803,None,,,,,,,,,s,001,2022_Jun_03_1455,test_exp,2021.2.3,60.09060159839636,
,,,,15,0,15,0,,,,,,,,,,,,,,,,,,,,,,,3,2.8528423749958165,99.66175266704522,None,99.66175266704522,None,,,s,001,2022_Jun_03_1455,test_exp,2021.2.3,60.09060159839636,
,,,,16,0,16,0,6.5241379590006545,,104.02916966704652,None,,,,,,,,,0.47500000000000003,2,103.5466822500457,None,2,0.5311214579851367,105.02956858399557,None,105.02956858399557,None,,,,,,,,,s,001,2022_Jun_03_1455,test_exp,2021.2.3,60.09060159839636,
,,,,16,0,16,0,,,,,,,,,,,,,,,,,,,,,,,3,1.1791381249786355,105.57878270902438,None,105.57878270902438,None,,,s,001,2022_Jun_03_1455,test_exp,2021.2.3,60.09060159839636,
,,,,17,0,17,0,6.5241379590006545,,107.92995116702514,None,,,,,,,,,0.15,1,107.77861695899628,None,2,2.7408203749801032,108.92991091700969,None,108.92991091700969,None,,,,,,,,,s,001,2022_Jun_03_1455,test_exp,2021.2.3,60.09060159839636,
,,,,17,0,17,0,,,,,,,,,,,,,,,,,,,,,,,2,0.8301831250428222,111.69555487501202,None,111.69555487501202,None,,,s,001,2022_Jun_03_1455,test_exp,2021.2.3,60.09060159839636,
,,,,18,0,18,0,6.5241379590006545,,113.68025783402845,None,,,,,,,,,0.125,1,113.54604345903499,None,1,0.713355915970169,114.67934512504144,None,114.67934512504144,None,,,,,,,,,s,001,2022_Jun_03_1455,test_exp,2021.2.3,60.09060159839636,
,,,,18,0,18,0,,,,,,,,,,,,,,,,,,,,,,,3,1.0527591250138357,115.41288833401632,None,115.41288833401632,None,,,s,001,2022_Jun_03_1455,test_exp,2021.2.3,60.09060159839636,
,,,,19,0,19,0,6.5241379590006545,,117.89635749999434,None,,,,,,,,,0.4,1,117.49629275000188,None,1,0.784381541016046,118.89614641701337,None,118.89614641701337,None,,,,,,,,,s,001,2022_Jun_03_1455,test_exp,2021.2.3,60.09060159839636,
,,,,19,0,19,0,,,,,,,,,,,,,,,,,,,,,,,4,0.8020249159890227,119.71257770899683,None,119.71257770899683,None,,,s,001,2022_Jun_03_1455,test_exp,2021.2.3,60.09060159839636,
,,,,20,0,20,0,6.5241379590006545,,121.72989625000628,None,,,,,,,,,0.17500000000000002,1,121.54611429199576,None,1,0.8710249160067178,122.72976529202424,None,122.72976529202424,None,,,,,,,,,s,001,2022_Jun_03_1455,test_exp,2021.2.3,60.09060159839636,
,,,,20,0,20,0,,,,,,,,,,,,,,,,,,,,,,,3,1.2046037079999223,123.62914720899425,None,123.62914720899425,None,,,s,001,2022_Jun_03_1455,test_exp,2021.2.3,60.09060159839636,
,,,,21,0,21,0,6.5241379590006545,,126.34646412503207,None,,,,,,,,,0.47500000000000003,1,125.86367908399552,None,1,0.5767410419648513,127.34625516703818,None,127.34625516703818,None,,,,,,,,,s,001,2022_Jun_03_1455,test_exp,2021.2.3,60.09060159839636,
,,,,21,0,21,0,,,,,,,,,,,,,,,,,,,,,,,4,0.9126235419535078,127.94620387500618,None,127.94620387500618,None,,,s,001,2022_Jun_03_1455,test_exp,2021.2.3,60.09060159839636,
,,,,22,0,22,0,6.5241379590006545,,130.26323670899728,None,,,,,,,,,0.37500000000000006,1,129.87999845901504,None,1,0.6132114159991033,131.2636457500048,None,131.2636457500048,None,,,,,,,,,s,001,2022_Jun_03_1455,test_exp,2021.2.3,60.09060159839636,
,,,,22,0,22,0,,,,,,,,,,,,,,,,,,,,,,,4,1.173916416009888,131.89686295902357,None,131.89686295902357,None,,,s,001,2022_Jun_03_1455,test_exp,2021.2.3,60.09060159839636,
,,,,23,0,23,0,6.5241379590006545,,134.28023891703924,None,,,,,,,,,0.17500000000000002,1,134.0966852499987,None,2,3.126188041991554,135.28038112504873,None,135.28038112504873,None,,,,,,,,,s,001,2022_Jun_03_1455,test_exp,2021.2.3,60.09060159839636,
,,,,23,0,23,0,,,,,,,,,,,,,,,,,,,,,,,3,0.9176353749935515,138.4300545839942,None,138.4300545839942,None,,,s,001,2022_Jun_03_1455,test_exp,2021.2.3,60.09060159839636,
,,,,24,0,24,0,6.5241379590006545,,140.43005295901094,None,,,,,,,,,0.05,2,140.38010058400687,None,2,1.2479617079952732,141.430889167008,None,141.430889167008,None,,,,,,,,,s,001,2022_Jun_03_1455,test_exp,2021.2.3,60.09060159839636,
,,,,24,0,24,0,,,,,,,,,,,,,,,,,,,,,,,3,1.279850582999643,142.69711595901754,None,142.69711595901754,None,,,s,001,2022_Jun_03_1455,test_exp,2021.2.3,60.09060159839636,
,,,,25,0,25,0,6.5241379590006545,,145.13011054199887,None,,,,,,,,,0.125,2,144.9975728749996,None,2,2.0953506659716368,146.13040795904817,None,146.13040795904817,None,,,,,,,,,s,001,2022_Jun_03_1455,test_exp,2021.2.3,60.09060159839636,
,,,,25,0,25,0,,,,,,,,,,,,,,,,,,,,,,,2,2.5456157080479898,148.2472647500108,None,148.2472647500108,None,,,s,001,2022_Jun_03_1455,test_exp,2021.2.3,60.09060159839636,
,,,,26,0,26,0,6.5241379590006545,,151.94786600000225,None,,,,,,,,,0.125,2,151.81427429203177,None,1,7.3328686250024475,152.94735583401052,None,152.94735583401052,None,,,,,,,,,s,001,2022_Jun_03_1455,test_exp,2021.2.3,60.09060159839636,
,,,,26,0,26,0,,,,,,,,,,,,,,,,,,,,,,,3,1.1088883330230601,160.2976302500465,None,160.2976302500465,None,,,s,001,2022_Jun_03_1455,test_exp,2021.2.3,60.09060159839636,
,,,,27,0,27,0,6.5241379590006545,,162.4808278750279,None,,,,,,,,,0.05,1,162.43067058402812,None,2,1.270484457956627,163.48086791700916,None,163.48086791700916,None,,,,,,,,,s,001,2022_Jun_03_1455,test_exp,2021.2.3,60.09060159839636,
,,,,27,0,27,0,,,,,,,,,,,,,,,,,,,,,,,1,0.8312185830436647,164.78112875000807,None,164.78112875000807,None,,,s,001,2022_Jun_03_1455,test_exp,2021.2.3,60.09060159839636,
,,,,28,0,28,0,6.5241379590006545,,166.91456375003327,None,,,,,,,,,0.275,1,166.63117166701704,None,2,1.3112611250253394,167.9144469590392,None,167.9144469590392,None,,,,,,,,,s,001,2022_Jun_03_1455,test_exp,2021.2.3,60.09060159839636,
,,,,28,0,28,0,,,,,,,,,,,,,,,,,,,,,,,2,5.112780791008845,169.24786970904097,None,169.24786970904097,None,,,s,001,2022_Jun_03_1455,test_exp,2021.2.3,60.09060159839636,
,,,,29,0,29,0,6.5241379590006545,,175.71545504202368,None,,,,,,,,,0.32500000000000007,2,175.38202458404703,None,1,0.7019539579632692,176.71455595904263,None,176.71455595904263,None,,,,,,,,,s,001,2022_Jun_03_1455,test_exp,2021.2.3,60.09060159839636,
,,,,29,0,29,0,,,,,,,,,,,,,,,,,,,,,,,2,1.4215667910175398,177.44793437502813,None,177.44793437502813,None,,,s,001,2022_Jun_03_1455,test_exp,2021.2.3,60.09060159839636,
,,,,30,0,30,0,6.5241379590006545,,180.04863299999852,None,,,,,,,,,0.15,1,179.89855779201025,None,1,0.6373665829887614,181.048219584045,None,181.048219584045,None,,,,,,,,,s,001,2022_Jun_03_1455,test_exp,2021.2.3,60.09060159839636,
,,,,30,0,30,0,,,,,,,,,,,,,,,,,,,,,,,3,1.364452792040538,181.7142874590354,None,181.7142874590354,None,,,s,001,2022_Jun_03_1455,test_exp,2021.2.3,60.09060159839636,
,,,,31,0,31,0,6.5241379590006545,,184.39875512500294,None,,,,,,,,,0.30000000000000004,2,184.09855733404402,None,1,0.4395015829941258,185.39919558400288,None,185.39919558400288,None,,,,,,,,,s,001,2022_Jun_03_1455,test_exp,2021.2.3,60.09060159839636,
,,,,31,0,31,0,,,,,,,,,,,,,,,,,,,,,,,2,1.5025180830270983,185.86498183402,None,185.86498183402,None,,,s,001,2022_Jun_03_1455,test_exp,2021.2.3,60.09060159839636,
,,,,32,0,32,0,6.5241379590006545,,188.6822972500231,None,,,,,,,,,0.275,2,188.3983516250155,None,2,0.7067971660289913,189.6820357090328,None,189.6820357090328,None,,,,,,,,,s,001,2022_Jun_03_1455,test_exp,2021.2.3,60.09060159839636,
,,,,32,0,32,0,,,,,,,,,,,,,,,,,,,,,,,3,1.1953572920174338,190.415436084033,None,190.415436084033,None,,,s,001,2022_Jun_03_1455,test_exp,2021.2.3,60.09060159839636,
,,,,33,0,33,0,6.5241379590006545,,192.9656717920443,None,,,,,,,,,0.32500000000000007,2,192.63223720900714,None,1,1.381797208043281,193.9659716670285,None,193.9659716670285,None,,,,,,,,,s,001,2022_Jun_03_1455,test_exp,2021.2.3,60.09060159839636,
,,,,33,0,33,0,,,,,,,,,,,,,,,,,,,,,,,2,0.9786469989921898,195.3653951670276,None,195.3653951670276,None,,,s,001,2022_Jun_03_1455,test_exp,2021.2.3,60.09060159839636,
,,,,34,0,34,0,6.5241379590006545,,197.4656224170467,None,,,,,,,,,0.1,1,197.36531154200202,None,1,0.5756511240033433,198.4663535419968,None,198.4663535419968,None,,,,,,,,,s,001,2022_Jun_03_1455,test_exp,2021.2.3,60.09060159839636,
,,,,34,0,34,0,,,,,,,,,,,,,,,,,,,,,,,4,1.075529291993007,199.06547408399638,None,199.06547408399638,None,,,s,001,2022_Jun_03_1455,test_exp,2021.2.3,60.09060159839636,
,,,,35,0,35,0,6.5241379590006545,,201.51599037501728,None,,,,,,,,,0.35000000000000003,2,201.16567258402938,None,2,0.7557172079687007,202.51607291703112,None,202.51607291703112,None,,,,,,,,,s,001,2022_Jun_03_1455,test_exp,2021.2.3,60.09060159839636,
,,,,35,0,35,0,,,,,,,,,,,,,,,,,,,,,,,2,1.1781289580394514,203.2989420000231,None,203.2989420000231,None,,,s,001,2022_Jun_03_1455,test_exp,2021.2.3,60.09060159839636,
,,,,36,0,36,0,6.5241379590006545,,205.84946645901073,None,,,,,,,,,0.35000000000000003,2,205.49923450005008,None,2,0.7939227909664623,206.84928200003924,None,206.84928200003924,None,,,,,,,,,s,001,2022_Jun_03_1455,test_exp,2021.2.3,60.09060159839636,
,,,,36,0,36,0,,,,,,,,,,,,,,,,,,,,,,,2,1.72392216703156,207.66596829204354,None,207.66596829204354,None,,,s,001,2022_Jun_03_1455,test_exp,2021.2.3,60.09060159839636,
,,,,37,0,37,0,6.5241379590006545,,210.59992458403576,None,,,,,,,,,0.17500000000000002,2,210.41562400001567,None,1,1.5702657080255449,211.5996674170019,None,211.5996674170019,None,,,,,,,,,s,001,2022_Jun_03_1455,test_exp,2021.2.3,60.09060159839636,
,,,,37,0,37,0,,,,,,,,,,,,,,,,,,,,,,,2,1.027253833017312,213.1988859170233,None,213.1988859170233,None,,,s,001,2022_Jun_03_1455,test_exp,2021.2.3,60.09060159839636,
,,,,38,0,38,0,6.5241379590006545,,215.74977658403805,None,,,,,,,,,0.5,2,215.2491670420277,None,2,1.1449119580211118,216.74941608402878,None,216.74941608402878,None,,,,,,,,,s,001,2022_Jun_03_1455,test_exp,2021.2.3,60.09060159839636,
,,,,38,0,38,0,,,,,,,,,,,,,,,,,,,,,,,4,1.0290618329891004,217.91617100004805,None,217.91617100004805,None,,,s,001,2022_Jun_03_1455,test_exp,2021.2.3,60.09060159839636,
,,,,39,0,39,0,6.5241379590006545,,220.44996183400508,None,,,,,,,,,0.47500000000000003,1,219.9661022920045,None,1,0.5977546659996733,221.4502844590461,None,221.4502844590461,None,,,,,,,,,s,001,2022_Jun_03_1455,test_exp,2021.2.3,60.09060159839636,
,,,,39,0,39,0,,,,,,,,,,,,,,,,,,,,,,,2,1.039774083008524,222.0662285000435,None,222.0662285000435,None,,,s,001,2022_Jun_03_1455,test_exp,2021.2.3,60.09060159839636,
,,,,40,0,40,0,6.5241379590006545,,224.38338108401513,None,,,,,,,,,0.25,1,224.13375095900847,None,1,0.8289787080138922,225.38328495901078,None,225.38328495901078,None,,,,,,,,,s,001,2022_Jun_03_1455,test_exp,2021.2.3,60.09060159839636,
,,,,40,0,40,0,,,,,,,,,,,,,,,,,,,,,,,3,1.0759211240219884,226.23346362501616,None,226.23346362501616,None,,,s,001,2022_Jun_03_1455,test_exp,2021.2.3,60.09060159839636,
,,,,41,0,41,0,6.5241379590006545,,228.53390262502944,None,,,,,,,,,0.2,2,228.3332842090167,None,2,0.8430963330320083,229.53329400002258,None,229.53329400002258,None,,,,,,,,,s,001,2022_Jun_03_1455,test_exp,2021.2.3,60.09060159839636,
,,,,41,0,41,0,,,,,,,,,,,,,,,,,,,,,,,4,1.1362681669997983,230.39985808404163,None,230.39985808404163,None,,,s,001,2022_Jun_03_1455,test_exp,2021.2.3,60.09060159839636,
,,,,42,0,42,0,6.5241379590006545,,232.9672077090363,None,,,,,,,,,0.4,1,232.5673859170056,None,1,0.697578291001264,233.96665783401113,None,233.96665783401113,None,,,,,,,,,s,001,2022_Jun_03_1455,test_exp,2021.2.3,60.09060159839636,
,,,,42,0,42,0,,,,,,,,,,,,,,,,,,,,,,,3,1.1635632080142386,234.68359962501563,None,234.68359962501563,None,,,s,001,2022_Jun_03_1455,test_exp,2021.2.3,60.09060159839636,
,,,,43,0,43,0,6.5241379590006545,,237.08398395904806,None,,,,,,,,,0.2,1,236.8706320420024,None,2,0.5782838740269653,238.08416075003333,None,238.08416075003333,None,,,,,,,,,s,001,2022_Jun_03_1455,test_exp,2021.2.3,60.09060159839636,
,,,,43,0,43,0,,,,,,,,,,,,,,,,,,,,,,,4,1.1466869579744525,238.68360516702523,None,238.68360516702523,None,,,s,001,2022_Jun_03_1455,test_exp,2021.2.3,60.09060159839636,
,,,,44,0,44,0,6.5241379590006545,,240.98424116702517,None,,,,,,,,,0.125,2,240.85025229200255,None,2,0.7457476659910753,241.98374570900341,None,241.98374570900341,None,,,,,,,,,s,001,2022_Jun_03_1455,test_exp,2021.2.3,60.09060159839636,
,,,,44,0,44,0,,,,,,,,,,,,,,,,,,,,,,,3,2.4238290829816833,242.75043087505037,None,242.75043087505037,None,,,s,001,2022_Jun_03_1455,test_exp,2021.2.3,60.09060159839636,
,,,,45,0,45,0,6.5241379590006545,,246.60128354199696,None,,,,,,,,,0.4,2,246.20084141701227,None,1,0.4639167499844916,247.60051083401777,None,247.60051083401777,None,,,,,,,,,s,001,2022_Jun_03_1455,test_exp,2021.2.3,60.09060159839636,
,,,,45,0,45,0,,,,,,,,,,,,,,,,,,,,,,,2,1.4220383330248296,248.08423725003377,None,248.08423725003377,None,,,s,001,2022_Jun_03_1455,test_exp,2021.2.3,60.09060159839636,
,,,,46,0,46,0,6.5241379590006545,,250.58410145901144,None,,,,,,,,,0.05,1,250.53442541701952,None,1,1.2823885830002837,251.5839072500239,None,251.5839072500239,None,,,,,,,,,s,001,2022_Jun_03_1455,test_exp,2021.2.3,60.09060159839636,
,,,,46,0,46,0,,,,,,,,,,,,,,,,,,,,,,,2,1.319239208009094,252.88414500001818,None,252.88414500001818,None,,,s,001,2022_Jun_03_1455,test_exp,2021.2.3,60.09060159839636,
,,,,47,0,47,0,6.5241379590006545,,255.43392545904499,None,,,,,,,,,0.2,2,255.2341244170093,None,1,1.9370984999695793,256.4345257090172,None,256.4345257090172,None,,,,,,,,,s,001,2022_Jun_03_1455,test_exp,2021.2.3,60.09060159839636,
,,,,47,0,47,0,,,,,,,,,,,,,,,,,,,,,,,2,0.8940775410155766,258.4006414170144,None,258.4006414170144,None,,,s,001,2022_Jun_03_1455,test_exp,2021.2.3,60.09060159839636,
,,,,48,0,48,0,6.5241379590006545,,260.51784737501293,None,,,,,,,,,0.2,1,260.3174641249934,None,1,0.8597594579914585,261.5180433750502,None,261.5180433750502,None,,,,,,,,,s,001,2022_Jun_03_1455,test_exp,2021.2.3,60.09060159839636,
,,,,48,0,48,0,,,,,,,,,,,,,,,,,,,,,,,3,1.3104961240314879,262.40128066705074,None,262.40128066705074,None,,,s,001,2022_Jun_03_1455,test_exp,2021.2.3,60.09060159839636,
,,,,49,0,49,0,6.5241379590006545,,265.13480754202465,None,,,,,,,,,0.4,1,264.73406775004696,None,1,1.0612472500069998,266.13462012499804,None,266.13462012499804,None,,,,,,,,,s,001,2022_Jun_03_1455,test_exp,2021.2.3,60.09060159839636,
,,,,49,0,49,0,,,,,,,,,,,,,,,,,,,,,,,3,1.134592332993634,267.2179107500124,None,267.2179107500124,None,,,s,001,2022_Jun_03_1455,test_exp,2021.2.3,60.09060159839636,
,,,,,,,,,,,,,,,,,,,,,,,,,,,,,,,,,,,,268.38448179204715,None,,,,,,,
